time,seconds_elapsed,z,y,x
1769658627425992700,0.06999267578125,0.009537829086184502,0.08593180030584335,-0.0596512034535408
1769658627435980800,0.079980712890625,0.0031446446664631367,0.07690262049436569,-0.08414269983768463
1769658627445969000,0.089968994140625,-0.0019497156608849764,0.07580415159463882,-0.12036484479904175
1769658627455956700,0.099956787109375,-0.006119426805526018,0.09972280263900757,-0.15822194516658783
1769658627465944800,0.10994482421875,-0.008325635455548763,0.14374080300331116,-0.1937977820634842
1769658627475932000,0.119931884765625,-0.004074165131896734,0.18608026206493378,-0.20662569999694824
1769658627485919700,0.129919677734375,0.006994909141212702,0.212125763297081,-0.20119637250900269
1769658627495907800,0.139907958984375,0.015072010457515717,0.22385992109775543,-0.16665837168693542
1769658627505896000,0.14989599609375,0.017887815833091736,0.21167194843292236,-0.12695521116256714
1769658627515883800,0.1598837890625,0.022893760353326797,0.1898159235715866,-0.12130078673362732
1769658627525870800,0.169870849609375,0.021553879603743553,0.1862744688987732,-0.1523476094007492
1769658627535859000,0.17985888671875,0.020463047549128532,0.20580928027629852,-0.19930152595043182
1769658627545846800,0.1898466796875,0.019587134942412376,0.2262602299451828,-0.22063584625720978
1769658627555835000,0.1998349609375,0.025541430339217186,0.2235715091228485,-0.19899313151836395
1769658627565822700,0.20982275390625,0.03072025440633297,0.20068968832492828,-0.15833158791065216
1769658627575809800,0.219809814453125,0.025686880573630333,0.18272747099399567,-0.12834066152572632
1769658627585798000,0.2297978515625,0.01729828119277954,0.16652527451515198,-0.12850533425807953
1769658627595786000,0.239785888671875,0.007997456938028336,0.15626677870750427,-0.1461367905139923
1769658627605773600,0.249773681640625,0.0008781597716733813,0.1599695384502411,-0.17547640204429626
1769658627615761700,0.25976171875,-0.006274824496358633,0.1827278435230255,-0.198322594165802
1769658627625749000,0.2697490234375,-0.009019121527671814,0.1979103982448578,-0.21799761056900024
1769658627635736600,0.279736572265625,-0.007081139832735062,0.21160383522510529,-0.22232018411159515
1769658627645724700,0.289724609375,-0.00214656931348145,0.20006239414215088,-0.1999712586402893
1769658627655712800,0.299712646484375,0.006130801513791084,0.16847383975982666,-0.15939347445964813
1769658627665700600,0.30970068359375,0.013732974417507648,0.1298128068447113,-0.11372046917676926
1769658627675688700,0.319688720703125,0.01857859641313553,0.0997193455696106,-0.08432130515575409
1769658627685675800,0.32967578125,0.024828989058732986,0.09557797759771347,-0.08201956748962402
1769658627695663600,0.33966357421875,0.030042661353945732,0.11006450653076172,-0.10677604377269745
1769658627705651700,0.349651611328125,0.031303487718105316,0.15540334582328796,-0.14287489652633667
1769658627715639800,0.359639892578125,0.03176102042198181,0.20374371111392975,-0.17658598721027374
1769658627725628000,0.3696279296875,0.03810475766658783,0.23508284986019135,-0.20378950238227844
1769658627735614700,0.37961474609375,0.04253199324011803,0.2590869963169098,-0.22420662641525269
1769658627745602800,0.389602783203125,0.042341895401477814,0.2631520926952362,-0.23426273465156555
1769658627755590700,0.399590576171875,0.04177357628941536,0.24929486215114594,-0.22887542843818665
1769658627765578800,0.409578857421875,0.04004202410578728,0.22397838532924652,-0.21861889958381653
1769658627775566800,0.41956689453125,0.03836449608206749,0.20514291524887085,-0.21654270589351654
1769658627785553700,0.4295537109375,0.03947131708264351,0.19138164818286896,-0.2170911431312561
1769658627795541800,0.439541748046875,0.037092048674821854,0.18042805790901184,-0.20809099078178406
1769658627805529900,0.44952978515625,0.03523418307304382,0.15950292348861694,-0.18698018789291382
1769658627815518000,0.45951806640625,0.037236880511045456,0.12666775286197662,-0.15101686120033264
1769658627825505800,0.469505859375,0.035444967448711395,0.08899778872728348,-0.10531242936849594
1769658627835494000,0.479493896484375,0.03113330900669098,0.056957826018333435,-0.06443583965301514
1769658627845480700,0.489480712890625,0.02508256584405899,0.03372824937105179,-0.039491668343544006
1769658627855468800,0.49946875,0.01678282395005226,0.004887280985713005,-0.031040124595165253
1769658627865457000,0.509456787109375,0.008492490276694298,-0.027682259678840637,-0.02525811642408371
1769658627875445000,0.519445068359375,0.003578159026801586,-0.053669385612010956,-0.020602911710739136
1769658627885432800,0.529432861328125,0.003558098804205656,-0.06777600198984146,-0.019576285034418106
1769658627895420000,0.539419921875,0.0031290636397898197,-0.06234368681907654,-0.02489914372563362
1769658627905407700,0.54940771484375,0.0034805573523044586,-0.04391707107424736,-0.024733107537031174
1769658627915395800,0.559395751953125,0.004485634155571461,-0.0254344642162323,-0.031662385910749435
1769658627925383700,0.5693837890625,0.0021956718992441893,-0.010265775956213474,-0.04085947200655937
1769658627935371800,0.579371826171875,0.00665859691798687,0.011050431057810783,-0.053937721997499466
1769658627945359000,0.589359130859375,0.010080626234412193,0.037506453692913055,-0.06552033126354218
1769658627955347000,0.599346923828125,0.0182405523955822,0.05780373513698578,-0.07730880379676819
1769658627965335000,0.6093349609375,0.02346176840364933,0.07755705714225769,-0.08951366692781448
1769658627975323100,0.6193232421875,0.023058034479618073,0.09150855988264084,-0.0965057983994484
1769658627985311000,0.62931103515625,0.022082559764385223,0.08647061884403229,-0.10760027170181274
1769658627995298000,0.639298095703125,0.025816576555371284,0.0742882564663887,-0.12023350596427917
1769658628005286100,0.6492861328125,0.026900839060544968,0.08030897378921509,-0.13457688689231873
1769658628015274000,0.65927392578125,0.026897376403212547,0.09879451245069504,-0.14986476302146912
1769658628025262000,0.669261962890625,0.03095536306500435,0.12054429203271866,-0.17296040058135986
1769658628035250200,0.679250244140625,0.039362695068120956,0.1384793519973755,-0.1989363431930542
1769658628045238000,0.689238037109375,0.039607979357242584,0.13984155654907227,-0.2237519770860672
1769658628055225000,0.69922509765625,0.04343467578291893,0.13113567233085632,-0.24782510101795197
1769658628065213200,0.709213134765625,0.054494380950927734,0.12044733762741089,-0.2821168005466461
1769658628075201000,0.719200927734375,0.05459611490368843,0.10990042239427567,-0.3153213560581207
1769658628085189000,0.729189208984375,0.04824541136622429,0.09753785282373428,-0.33905017375946045
1769658628095177200,0.73917724609375,0.039193324744701385,0.10528445988893509,-0.3590443730354309
1769658628105164000,0.7491640625,0.027354909107089043,0.12332089245319366,-0.3844967186450958
1769658628115152100,0.759152099609375,0.02258358895778656,0.13440683484077454,-0.4108113944530487
1769658628125140200,0.76914013671875,0.018833504989743233,0.12322304397821426,-0.42479488253593445
1769658628135128000,0.779128173828125,0.023137705400586128,0.11148303002119064,-0.42973238229751587
1769658628145116200,0.7891162109375,0.029740525409579277,0.12173883616924286,-0.4266436994075775
1769658628155103200,0.799103271484375,0.037974756211042404,0.1450050175189972,-0.4187476933002472
1769658628165091000,0.809091064453125,0.05126716196537018,0.1640739142894745,-0.40624433755874634
1769658628175079200,0.8190791015625,0.06873030960559845,0.1638781726360321,-0.39314213395118713
1769658628185067300,0.8290673828125,0.07733671367168427,0.14975179731845856,-0.39339154958724976
1769658628195055000,0.83905517578125,0.08153917640447617,0.14589767158031464,-0.3986044228076935
1769658628205042200,0.849042236328125,0.08039930462837219,0.13973399996757507,-0.4142085611820221
1769658628215030300,0.8590302734375,0.0713845044374466,0.1216852143406868,-0.42793020606040955
1769658628225018000,0.86901806640625,0.06567655503749847,0.09900076687335968,-0.4604291617870331
1769658628235006200,0.879006103515625,0.058816783130168915,0.06843273341655731,-0.5024346709251404
1769658628244994000,0.888994140625,0.03784278780221939,0.06091028079390526,-0.5423955321311951
1769658628254982100,0.898982177734375,0.02905036136507988,0.10953187942504883,-0.537993848323822
1769658628264969200,0.90896923828125,0.010961554944515228,0.1350919008255005,-0.49967360496520996
1769658628274957000,0.91895703125,0.0058818417601287365,0.13154590129852295,-0.43742644786834717
1769658628284945000,0.92894482421875,0.00530087249353528,0.1233474388718605,-0.37547123432159424
1769658628294933000,0.93893310546875,0.008340604603290558,0.12233703583478928,-0.32256969809532166
1769658628304921000,0.948921142578125,0.015222656540572643,0.10837014019489288,-0.2831062078475952
1769658628314908000,0.958907958984375,0.020799582824110985,0.12122681736946106,-0.2672649323940277
1769658628324896000,0.96889599609375,0.03877005726099014,0.17083725333213806,-0.28648775815963745
1769658628334884000,0.978884033203125,0.057322170585393906,0.18420366942882538,-0.31710317730903625
1769658628344872200,0.9888720703125,0.06720898300409317,0.18562856316566467,-0.32948967814445496
1769658628354860000,0.998860107421875,0.05807194113731384,0.1920987218618393,-0.30593669414520264
1769658628364847000,1.00884716796875,0.05178963020443916,0.20838114619255066,-0.27561521530151367
1769658628374835000,1.0188349609375,0.04665958508849144,0.19532819092273712,-0.2568543553352356
1769658628384823000,1.028822998046875,0.043492820113897324,0.16518795490264893,-0.24536141753196716
1769658628394811100,1.03881103515625,0.03858355060219765,0.1381414234638214,-0.2303726077079773
1769658628404799200,1.04879931640625,0.033149637281894684,0.13582393527030945,-0.22164170444011688
1769658628414786000,1.0587861328125,0.03508735075592995,0.12462320923805237,-0.22155942022800446
1769658628424774100,1.068774169921875,0.03084675781428814,0.11062300205230713,-0.2284749448299408
1769658628434762000,1.078761962890625,0.025390207767486572,0.10321062803268433,-0.22748291492462158
1769658628444750000,1.08875,0.01973409578204155,0.12915201485157013,-0.24186085164546967
1769658628454738200,1.09873828125,0.0135648837313056,0.17244835197925568,-0.28656575083732605
1769658628464725000,1.10872509765625,0.014983950182795525,0.17953316867351532,-0.3287120759487152
1769658628474713000,1.118713134765625,0.02060934528708458,0.1612500250339508,-0.3395889401435852
1769658628484701200,1.128701171875,0.02475690469145775,0.15351703763008118,-0.32090163230895996
1769658628494689300,1.138689208984375,0.03245557099580765,0.16519126296043396,-0.30329468846321106
1769658628504677000,1.148677001953125,0.035867299884557724,0.16321656107902527,-0.3026674687862396
1769658628514665200,1.158665283203125,0.03790435194969177,0.15379589796066284,-0.3174533247947693
1769658628524652000,1.168652099609375,0.028956573456525803,0.11330143362283707,-0.3459266126155853
1769658628534640000,1.17864013671875,0.027181044220924377,0.050898246467113495,-0.35128462314605713
1769658628544628200,1.188628173828125,0.035745151340961456,0.10675810277462006,-0.3579961061477661
1769658628554616300,1.1986162109375,0.038204580545425415,0.16191670298576355,-0.33536750078201294
1769658628564604200,1.208604248046875,0.043428994715213776,0.14794206619262695,-0.30611807107925415
1769658628574591200,1.21859130859375,0.041316043585538864,0.13591308891773224,-0.29590749740600586
1769658628584579300,1.228579345703125,0.03812069073319435,0.16765856742858887,-0.289835125207901
1769658628594567200,1.238567138671875,0.02752237394452095,0.18400931358337402,-0.28655970096588135
1769658628604555000,1.248554931640625,0.02431996911764145,0.1563776433467865,-0.28999149799346924
1769658628614543000,1.258543212890625,0.023511966690421104,0.1270218938589096,-0.28701168298721313
1769658628624530200,1.2685302734375,0.018415652215480804,0.11445173621177673,-0.274853378534317
1769658628634518300,1.278518310546875,0.013701857067644596,0.10631898045539856,-0.2597503364086151
1769658628644506000,1.288506103515625,0.0052682459354400635,0.08163905143737793,-0.23760348558425903
1769658628654494000,1.298493896484375,0.00757773919031024,0.04240616410970688,-0.2097790539264679
1769658628664482000,1.30848193359375,0.007494029588997364,0.024364547803997993,-0.18481695652008057
1769658628674469000,1.31846923828125,0.008323071524500847,0.018638217821717262,-0.1592271625995636
1769658628684457000,1.32845703125,0.009316425770521164,-0.007571632042527199,-0.13427218794822693
1769658628694445000,1.338445068359375,0.007226111367344856,-0.020343352109193802,-0.1127876564860344
1769658628704433200,1.34843310546875,0.008448107168078423,-0.015192894265055656,-0.09936012327671051
1769658628714421000,1.3584208984375,0.011522993445396423,-0.012912428006529808,-0.08762304484844208
1769658628724408000,1.368407958984375,0.012763716280460358,-0.02103503793478012,-0.08020757138729095
1769658628734396200,1.378396240234375,0.01368064247071743,-0.028144877403974533,-0.07488125562667847
1769658628744384000,1.388384033203125,0.010323282331228256,-0.027748839929699898,-0.07921396195888519
1769658628754372000,1.3983720703125,0.0065610348246991634,-0.03444429486989975,-0.08736643195152283
1769658628764360200,1.408360107421875,0.0008344411617144942,-0.038716625422239304,-0.09451375156641006
1769658628774347000,1.418346923828125,-0.005680449772626162,-0.03855523467063904,-0.09696225821971893
1769658628784335000,1.428335205078125,-0.009842218831181526,-0.04326917976140976,-0.10496535897254944
1769658628794323200,1.4383232421875,-0.010432641953229904,-0.045454833656549454,-0.1141791045665741
1769658628804311000,1.44831103515625,-0.009732451289892197,-0.04723998159170151,-0.12243466824293137
1769658628814299100,1.458299072265625,-0.006640254985541105,-0.048562243580818176,-0.12951043248176575
1769658628824287200,1.468287353515625,-0.004656598437577486,-0.055755794048309326,-0.1305983066558838
1769658628834274000,1.478274169921875,0.0017933110939338803,-0.06149331107735634,-0.12552978098392487
1769658628844262100,1.48826220703125,0.00588987534865737,-0.057688333094120026,-0.12194529175758362
1769658628854250200,1.498250244140625,0.005294125992804766,-0.03865232318639755,-0.12104221433401108
1769658628864238000,1.508238037109375,0.009002444334328175,-0.022624799981713295,-0.11024045199155807
1769658628874226200,1.51822607421875,0.008035183884203434,-0.015596451237797737,-0.1041087880730629
1769658628884213200,1.528213134765625,0.0063879298977553844,-0.010705851018428802,-0.10282391309738159
1769658628894201000,1.538201171875,0.003071495797485113,-0.0025893361307680607,-0.11106160283088684
1769658628904189200,1.548189208984375,0.0019572745077311993,0.0005502374842762947,-0.12230657786130905
1769658628914177300,1.55817724609375,0.0032086940482258797,0.006546610966324806,-0.1380128413438797
1769658628924165000,1.5681650390625,0.009156063199043274,0.012682885862886906,-0.14859497547149658
1769658628934152200,1.578152099609375,0.013658403418958187,0.019567688927054405,-0.15354233980178833
1769658628944139800,1.588139892578125,0.020931275561451912,0.017278941348195076,-0.15685082972049713
1769658628954128000,1.5981279296875,0.03096739761531353,0.014901803806424141,-0.15845352411270142
1769658628964116000,1.608115966796875,0.03989555314183235,0.012502354569733143,-0.15137848258018494
1769658628974103800,1.618103759765625,0.04620085656642914,0.0015096244169399142,-0.1542333960533142
1769658628984091000,1.6280908203125,0.05382872745394707,-0.021861596032977104,-0.1613752841949463
1769658628994078700,1.63807861328125,0.0548790767788887,-0.04025018960237503,-0.17411211133003235
1769658629004066800,1.64806689453125,0.04990819841623306,-0.06873183697462082,-0.18806126713752747
1769658629014054700,1.6580546875,0.042215924710035324,-0.09030824154615402,-0.20950238406658173
1769658629024042800,1.668042724609375,0.028434330597519875,-0.07225555926561356,-0.22989077866077423
1769658629034029800,1.67802978515625,0.020416883751749992,-0.05016889423131943,-0.2383284717798233
1769658629044017700,1.688017578125,0.008611359633505344,-0.04712064191699028,-0.25096026062965393
1769658629054005800,1.698005859375,0.005439801141619682,-0.051968928426504135,-0.2626776397228241
1769658629063993600,1.70799365234375,-0.002232144819572568,-0.04794228821992874,-0.2682209610939026
1769658629073981700,1.717981689453125,-0.009254634380340576,-0.05183769389986992,-0.2761233448982239
1769658629083969800,1.7279697265625,-0.012730371206998825,-0.06463441997766495,-0.27506574988365173
1769658629093956600,1.73795654296875,-0.01847987063229084,-0.07140684127807617,-0.26924940943717957
1769658629103944700,1.74794482421875,-0.023302633315324783,-0.08641691505908966,-0.26678940653800964
1769658629113932800,1.757932861328125,-0.022896235808730125,-0.10267258435487747,-0.26135629415512085
1769658629123920600,1.767920654296875,-0.023785732686519623,-0.11310587078332901,-0.2571703791618347
1769658629133908700,1.77790869140625,-0.021881572902202606,-0.12689732015132904,-0.23629333078861237
1769658629143895600,1.7878955078125,-0.01447966881096363,-0.12786701321601868,-0.22474825382232666
1769658629153883600,1.797883544921875,-0.002792385872453451,-0.12132096290588379,-0.21297921240329742
1769658629163871700,1.807871826171875,0.005325860343873501,-0.10540688037872314,-0.2062225192785263
1769658629173859800,1.81785986328125,0.004762069322168827,-0.06809839606285095,-0.20132815837860107
1769658629183847700,1.82784765625,0.0048331329599022865,-0.03014352172613144,-0.2022838145494461
1769658629193834800,1.837834716796875,0.00736899534240365,-0.0024048364721238613,-0.19784964621067047
1769658629203822800,1.84782275390625,0.015069037675857544,0.00569069804623723,-0.1873750239610672
1769658629213810700,1.857810791015625,0.027294810861349106,0.006756761576980352,-0.17380648851394653
1769658629223798800,1.867798828125,0.04474743455648422,0.01586415246129036,-0.16746026277542114
1769658629233787000,1.877786865234375,0.058310382068157196,0.02452794834971428,-0.16590124368667603
1769658629243773700,1.887773681640625,0.07008221745491028,0.036708004772663116,-0.16182157397270203
1769658629253761800,1.89776171875,0.07160980999469757,0.03589387610554695,-0.16535212099552155
1769658629263750000,1.90775,0.069166399538517,0.02414931356906891,-0.1670686900615692
1769658629273737700,1.91773779296875,0.06131007522344589,0.01927812583744526,-0.17075903713703156
1769658629283725800,1.927725830078125,0.051461976021528244,0.01770019344985485,-0.16273827850818634
1769658629293713000,1.937712890625,0.04912291839718819,0.015220258384943008,-0.15111465752124786
1769658629303700700,1.94770068359375,0.049534961581230164,-0.019200399518013,-0.14196334779262543
1769658629313688800,1.957688720703125,0.05705120041966438,-0.043120913207530975,-0.1290384978055954
1769658629323677000,1.967677001953125,0.06072431430220604,-0.04067754000425339,-0.10716184973716736
1769658629333664800,1.977664794921875,0.07120252400636673,-0.03718027472496033,-0.0887996256351471
1769658629343652600,1.987652587890625,0.08559713512659073,-0.03527262434363365,-0.0718042328953743
1769658629353640000,1.997639892578125,0.10075424611568451,-0.01708190329372883,-0.06708670407533646
1769658629363627800,2.007627685546875,0.10781451314687729,0.020924542099237442,-0.06888075917959213
1769658629373615600,2.01761572265625,0.10838762670755386,0.06225334107875824,-0.06987571716308594
1769658629383603700,2.027603759765625,0.10784726589918137,0.07573621720075607,-0.06639477610588074
1769658629393591600,2.037591552734375,0.10011051595211029,0.06479328870773315,-0.06471139192581177
1769658629403579000,2.047578857421875,0.09606357663869858,0.0560494139790535,-0.06094244867563248
1769658629413566700,2.057566650390625,0.09573148190975189,0.025783656165003777,-0.04988127574324608
1769658629423554600,2.067554443359375,0.0991397500038147,-0.01699742302298546,-0.04178328067064285
1769658629433542700,2.077542724609375,0.08762131631374359,-0.051684293895959854,-0.028601963073015213
1769658629443530800,2.08753076171875,0.08059766888618469,-0.06325904279947281,-0.012571739964187145
1769658629453517600,2.097517578125,0.060746464878320694,-0.06854035705327988,-0.006124760024249554
1769658629463505700,2.107505615234375,0.0402245819568634,-0.07471039146184921,-0.005730305798351765
1769658629473493800,2.11749365234375,0.020676448941230774,-0.09340551495552063,-0.007825414650142193
1769658629483481600,2.127481689453125,0.01859350875020027,-0.11492682248353958,-0.007273999508470297
1769658629493469700,2.1374697265625,0.023619426414370537,-0.1258324682712555,0.004539783112704754
1769658629503456800,2.147456787109375,0.0346364788711071,-0.11026085168123245,0.012919709086418152
1769658629513444600,2.157444580078125,0.04877813160419464,-0.08612249046564102,0.014134377241134644
1769658629523432700,2.1674326171875,0.05860612541437149,-0.05212564021348953,0.019061697646975517
1769658629533420800,2.1774208984375,0.0730881318449974,-0.012373168021440506,0.023312635719776154
1769658629543408600,2.18740869140625,0.08380921930074692,0.014804301783442497,0.03261407092213631
1769658629553395700,2.197395751953125,0.09551621228456497,0.013537436723709106,0.03759098798036575
1769658629563383800,2.2073837890625,0.10540381819009781,0.019276754930615425,0.017481787130236626
1769658629573371600,2.21737158203125,0.10931892693042755,0.025954099372029305,-0.005133510567247868
1769658629583359700,2.22735986328125,0.10632771253585815,0.04785723611712456,-0.03820042684674263
1769658629593347800,2.237347900390625,0.09543059021234512,0.0347592793405056,-0.060848481953144073
1769658629603336000,2.2473359375,0.07643692195415497,0.0038356282748281956,-0.08816163241863251
1769658629613322800,2.25732275390625,0.05419819802045822,-0.00830758735537529,-0.11228001862764359
1769658629623310800,2.267310791015625,0.013851569965481758,-0.04581892117857933,-0.11503461003303528
1769658629633298700,2.277298583984375,-0.02271682769060135,-0.09849251806735992,-0.08928876370191574
1769658629643286800,2.287286865234375,-0.047198954969644547,-0.13350477814674377,-0.049848150461912155
1769658629653275000,2.29727490234375,-0.05510055646300316,-0.15816085040569305,-0.013400658965110779
1769658629663261700,2.30726171875,-0.040241044014692307,-0.14542312920093536,0.007493150886148214
1769658629673249800,2.317249755859375,-0.03198152035474777,-0.1396464705467224,0.0078462865203619
1769658629683238000,2.32723779296875,-0.032218318432569504,-0.14083331823349,0.011409144848585129
1769658629693226000,2.33722607421875,-0.031096596270799637,-0.1436394900083542,0.01761750690639019
1769658629703213600,2.347213623046875,-0.02861257642507553,-0.1472766250371933,0.01590169221162796
1769658629713201000,2.357200927734375,-0.022615138441324234,-0.13661092519760132,0.022868257015943527
1769658629723188700,2.367188720703125,-0.01227577030658722,-0.11196278780698776,0.0408376045525074
1769658629733176800,2.3771767578125,-0.009767604991793633,-0.10581035166978836,0.05648021399974823
1769658629743164700,2.38716455078125,-0.0037089590914547443,-0.09455367177724838,0.06703463196754456
1769658629753152800,2.39715283203125,0.009351981803774834,-0.09008994698524475,0.07440599799156189
1769658629763139800,2.407139892578125,0.022986572235822678,-0.08315657824277878,0.06955547630786896
1769658629773127700,2.417127685546875,0.029217569157481194,-0.08625516295433044,0.05013330280780792
1769658629783115500,2.427115478515625,0.03055909089744091,-0.09360413998365402,0.0365556962788105
1769658629793103600,2.437103515625,0.03319988027215004,-0.0947415754199028,0.04009716585278511
1769658629803091700,2.447091796875,0.03620477020740509,-0.08449535816907883,0.05288482457399368
1769658629813078500,2.45707861328125,0.05575769767165184,-0.070567287504673,0.05674081668257713
1769658629823066600,2.467066650390625,0.06854073703289032,-0.06498237699270248,0.07759223878383636
1769658629833054700,2.4770546875,0.07596004009246826,-0.05323197692632675,0.09067875146865845
1769658629843042800,2.487042724609375,0.07154647260904312,-0.05280867964029312,0.09705530107021332
1769658629853030700,2.49703076171875,0.06393089890480042,-0.04876706749200821,0.09643638134002686
1769658629863018800,2.507018798828125,0.0551578663289547,-0.05289902165532112,0.09560653567314148
1769658629873005600,2.517005615234375,0.05226726830005646,-0.06654959172010422,0.09139155596494675
1769658629882993700,2.52699365234375,0.05421008914709091,-0.07301248610019684,0.08882346749305725
1769658629892981800,2.536981689453125,0.05399969965219498,-0.0791473463177681,0.09378866851329803
1769658629902969900,2.546969970703125,0.05589130148291588,-0.08266215026378632,0.09462372213602066
1769658629912957700,2.556957763671875,0.06145251914858818,-0.08262939006090164,0.09895242750644684
1769658629922944800,2.56694482421875,0.057501137256622314,-0.06698969006538391,0.11024521291255951
1769658629932932900,2.576932861328125,0.05693601444363594,-0.05016942694783211,0.12690941989421844
1769658629942920700,2.586920654296875,0.05192350223660469,-0.028477685526013374,0.12937599420547485
1769658629952908500,2.596908447265625,0.05908367782831192,-0.01034022681415081,0.12492424994707108
1769658629962896600,2.606896728515625,0.06381722539663315,0.005581182427704334,0.11245597153902054
1769658629972883700,2.6168837890625,0.06256953626871109,0.0074158343486487865,0.10885564237833023
1769658629982871600,2.62687158203125,0.05418488010764122,-0.00522435549646616,0.12145528197288513
1769658629992859600,2.636859619140625,0.0628763735294342,-0.10059854388237,0.15784072875976562
1769658630002847700,2.64684765625,0.08492450416088104,-0.23933367431163788,0.2248004525899887
1769658630012835600,2.656835693359375,0.10163716971874237,-0.2910895347595215,0.3322280943393707
1769658630022822700,2.66682275390625,0.1031445637345314,-0.23843266069889069,0.4291496276855469
1769658630032810800,2.676810791015625,0.08338630944490433,-0.15328393876552582,0.4834458827972412
1769658630042798600,2.686798583984375,0.06175246834754944,-0.145124614238739,0.49185219407081604
1769658630052786700,2.69678662109375,0.037548866122961044,-0.26138705015182495,0.46928671002388
1769658630062774800,2.70677490234375,-0.0008971022325567901,-0.373493492603302,0.4133376181125641
1769658630072762600,2.7167626953125,-0.04087408259510994,-0.4302888512611389,0.36201050877571106
1769658630082749700,2.726749755859375,-0.08131497353315353,-0.4135902225971222,0.32531753182411194
1769658630092737800,2.73673779296875,-0.10095339268445969,-0.3275274932384491,0.31519511342048645
1769658630102725600,2.7467255859375,-0.09051091969013214,-0.2540314197540283,0.3066357672214508
1769658630112713500,2.75671337890625,-0.07582677900791168,-0.2408256083726883,0.2741699516773224
1769658630122701600,2.76670166015625,-0.055018216371536255,-0.22099097073078156,0.2157757580280304
1769658630132688600,2.776688720703125,-0.035638391971588135,-0.17430175840854645,0.16287338733673096
1769658630142676500,2.786676513671875,-0.020680660381913185,-0.140309676527977,0.1330423653125763
1769658630152664600,2.79666455078125,-0.0005684673087671399,-0.1286918967962265,0.11792892962694168
1769658630162652700,2.806652587890625,0.016779184341430664,-0.10797612369060516,0.10347411036491394
1769658630172640500,2.816640625,0.029958637431263924,-0.0792616605758667,0.09850438684225082
1769658630182627600,2.826627685546875,0.04508570209145546,-0.08396003395318985,0.09614478051662445
1769658630192615400,2.836615478515625,0.04801784083247185,-0.09712030738592148,0.07636308670043945
1769658630202603500,2.846603515625,0.03781464695930481,-0.09379652887582779,0.07103623449802399
1769658630212591600,2.856591552734375,0.022680968046188354,-0.0721421018242836,0.0820593312382698
1769658630222579700,2.866579833984375,0.0070734270848333836,-0.04192138463258743,0.09538979828357697
1769658630232566500,2.87656640625,-0.012324240058660507,0.002660997211933136,0.10816951096057892
1769658630242554600,2.8865546875,-0.02546054869890213,0.018551193177700043,0.11895500123500824
1769658630252542700,2.896542724609375,-0.023185409605503082,0.005606365390121937,0.13603146374225616
1769658630262530600,2.906530517578125,-0.024022839963436127,-0.016511188820004463,0.16556863486766815
1769658630272518700,2.9165185546875,-0.02741970121860504,-0.015332207083702087,0.19753828644752502
1769658630282506800,2.9265068359375,-0.038055919110774994,-0.01619303971529007,0.21445238590240479
1769658630292493600,2.93649365234375,-0.047936245799064636,-0.024780403822660446,0.20594491064548492
1769658630302481700,2.946481689453125,-0.0508769154548645,-0.04116152599453926,0.2034658044576645
1769658630312469800,2.9564697265625,-0.049688078463077545,-0.05709841474890709,0.20430655777454376
1769658630322457600,2.96645751953125,-0.058661505579948425,-0.062244120985269547,0.19909828901290894
1769658630332445700,2.97644580078125,-0.05856376886367798,-0.04321184381842613,0.18144924938678741
1769658630342432800,2.986432861328125,-0.056255701929330826,-0.02332775667309761,0.1631339192390442
1769658630352420600,2.996420654296875,-0.04534126818180084,-0.02145395614206791,0.15638387203216553
1769658630362408700,3.00640869140625,-0.03593973070383072,-0.019499754533171654,0.14834533631801605
1769658630372396800,3.016396728515625,-0.030056007206439972,0.0102240527048707,0.12892316281795502
1769658630382384600,3.026384521484375,-0.02020377665758133,0.04709134250879288,0.09824086725711823
1769658630392371700,3.036371826171875,-0.01707056723535061,0.0673164501786232,0.06606455892324448
1769658630402359800,3.04635986328125,-0.0037239587400108576,0.0770484134554863,0.055100493133068085
1769658630412347600,3.05634765625,0.009445106610655785,0.09397759288549423,0.0613115169107914
1769658630422335700,3.066335693359375,0.020850270986557007,0.10815490782260895,0.06669526547193527
1769658630432323600,3.076323486328125,0.029572656378149986,0.09832783788442612,0.05763465166091919
1769658630442310700,3.086310546875,0.024691348895430565,0.09229285269975662,0.03572162985801697
1769658630452298800,3.096298828125,0.038766950368881226,0.1440758854150772,0.042801644653081894
1769658630462286600,3.10628662109375,0.029782604426145554,0.14199261367321014,0.05918874591588974
1769658630472274400,3.1162744140625,0.03054506704211235,0.1002262607216835,0.06831379979848862
1769658630482262500,3.126262451171875,0.03039442002773285,0.05246063321828842,0.07890929281711578
1769658630492250600,3.136250732421875,0.018227769061923027,0.017157237976789474,0.08820372819900513
1769658630502237400,3.146237548828125,0.011099906638264656,-0.007229745388031006,0.08469370752573013
1769658630512225500,3.1562255859375,0.0022875056602060795,-0.008983170613646507,0.0691797286272049
1769658630522213600,3.166213623046875,-0.0074464804492890835,0.0006965324282646179,0.0543304905295372
1769658630532201500,3.176201416015625,-0.020654162392020226,0.005391152575612068,0.04558653384447098
1769658630542189600,3.186189453125,-0.0245563592761755,0.02546304278075695,0.03697149455547333
1769658630552176600,3.1961767578125,-0.017850251868367195,0.05828224495053291,0.03950362652540207
1769658630562164500,3.20616455078125,0.0073084961622953415,0.007577518001198769,0.05145397037267685
1769658630572152600,3.216152587890625,0.0036184201017022133,-0.007062411867082119,0.05759841576218605
1769658630582140700,3.226140625,-0.00009664357639849186,-0.018713677302002907,0.052135735750198364
1769658630592128500,3.23612841796875,0.0007451815763488412,-0.03852306678891182,0.04722539708018303
1769658630602115600,3.246115478515625,0.00009718991350382566,-0.02239830791950226,0.04810246080160141
1769658630612103700,3.256103759765625,0.0027984343469142914,-0.0012027421034872532,0.05212809517979622
1769658630622091500,3.266091552734375,-0.0006550641264766455,-0.0017265554051846266,0.05497085303068161
1769658630632079600,3.27607958984375,-0.004429828375577927,-0.010584228672087193,0.054685626178979874
1769658630642067700,3.286067626953125,-0.008121369406580925,0.013898656703531742,0.04694090783596039
1769658630652055600,3.2960556640625,-0.011601322330534458,0.08327746391296387,0.029228491708636284
1769658630662042600,3.306042724609375,0.008670123293995857,0.0956021249294281,0.009287343360483646
1769658630672030700,3.31603076171875,0.024185700342059135,0.1208888366818428,-0.012003564275801182
1769658630682018600,3.3260185546875,0.03231025114655495,0.18626417219638824,-0.03484230116009712
1769658630692006700,3.336006591796875,0.038603831082582474,0.23939503729343414,-0.06998351216316223
1769658630701994800,3.345994873046875,0.0447939969599247,0.227523535490036,-0.08104570209980011
1769658630711981600,3.355981689453125,0.05547061190009117,0.20966170728206635,-0.08633074909448624
1769658630721969700,3.3659697265625,0.06587202847003937,0.19339774549007416,-0.07887730002403259
1769658630731957800,3.375957763671875,0.060921743512153625,0.1425127238035202,-0.05857842043042183
1769658630741945600,3.385945556640625,0.05603959411382675,0.1288764923810959,-0.025323262438178062
1769658630751933700,3.39593359375,0.035968679934740067,0.12962403893470764,0.0163434911519289
1769658630761920800,3.405920654296875,0.024170298129320145,0.08652684092521667,0.029245564714074135
1769658630771908600,3.41590869140625,0.020440807566046715,0.04949585348367691,0.01194620132446289
1769658630781896700,3.425896728515625,0.010229584760963917,0.04635953903198242,0.03639225661754608
1769658630791884500,3.435884521484375,0.003387126140296459,0.01071898452937603,0.024235457181930542
1769658630801872600,3.44587255859375,-0.0038115321658551693,0.03886442631483078,0.01322779431939125
1769658630811859700,3.455859619140625,-0.009805775247514248,0.03958134725689888,0.02976815588772297
1769658630821847600,3.46584765625,-0.004066707566380501,0.009962053969502449,0.006170766428112984
1769658630831835400,3.47583544921875,-0.0008994101081043482,0.02898101881146431,-0.0008197652641683817
1769658630841823500,3.485823486328125,-0.004427166655659676,0.056658804416656494,0.0018867857288569212
1769658630851811600,3.4958115234375,0.006553845014423132,0.07758992165327072,0.01524653285741806
1769658630861799700,3.505799560546875,0.016337988898158073,0.06894630193710327,0.018452301621437073
1769658630871786500,3.515786376953125,0.026617256924510002,0.062117964029312134,0.012085482478141785
1769658630881774600,3.525774658203125,0.030872942879796028,0.05354820564389229,0.009262042120099068
1769658630891762700,3.5357626953125,0.02800045907497406,0.0580766461789608,-0.0005482444539666176
1769658630901750500,3.54575048828125,0.026372691616415977,0.07447721809148788,-0.013393043540418148
1769658630911738600,3.555738525390625,0.022700192406773567,0.09256141632795334,-0.006874690763652325
1769658630921725400,3.565725341796875,0.02463764324784279,0.0880398228764534,0.011345133185386658
1769658630931713500,3.575713623046875,0.0268656425178051,0.07112608850002289,0.02093251422047615
1769658630941701600,3.58570166015625,0.02688046731054783,0.07419906556606293,0.017662204802036285
1769658630951689700,3.595689697265625,0.02586846612393856,0.07035745680332184,0.013767598196864128
1769658630961677800,3.605677734375,0.02471749298274517,0.05175907164812088,0.011352636851370335
1769658630971664600,3.61566455078125,0.026425911113619804,0.029932070523500443,0.019334396347403526
1769658630981652700,3.62565283203125,0.025124333798885345,0.025598183274269104,0.02947717159986496
1769658630991640800,3.635640869140625,0.022843603044748306,0.03183264285326004,0.03536701947450638
1769658631001628700,3.645628662109375,0.02044866420328617,0.036538682878017426,0.02590438351035118
1769658631011616800,3.65561669921875,0.02002335898578167,0.0350118950009346,0.012846104800701141
1769658631021604900,3.66560498046875,0.019956912845373154,0.037456147372722626,0.008044484071433544
1769658631031591700,3.675591796875,0.02179582603275776,0.04479874670505524,0.014921830967068672
1769658631041579800,3.685579833984375,0.0252602007240057,0.05296746641397476,0.016748815774917603
1769658631051567900,3.69556787109375,0.02766823023557663,0.05288943275809288,0.013798033818602562
1769658631061556000,3.705555908203125,0.02755056321620941,0.049514465034008026,0.0029742945916950703
1769658631071543800,3.715543701171875,0.027683189138770103,0.04515300691127777,-0.013262465596199036
1769658631081531000,3.72553076171875,0.026904037222266197,0.05023834481835365,-0.02308783121407032
1769658631091518700,3.735518798828125,0.02986307442188263,0.060413483530282974,-0.0257299542427063
1769658631101506800,3.7455068359375,0.033681515604257584,0.06985003501176834,-0.027125487104058266
1769658631111494700,3.75549462890625,0.03594519942998886,0.08022411167621613,-0.03113407827913761
1769658631121482800,3.765482666015625,0.033685505390167236,0.07711797952651978,-0.032451849430799484
1769658631131469800,3.7754697265625,0.029820995405316353,0.05838823318481445,-0.026504211127758026
1769658631141458000,3.7854580078125,0.02315368503332138,0.03750725835561752,-0.020006313920021057
1769658631151445500,3.795445556640625,0.01833123341202736,0.028265822678804398,-0.007368283346295357
1769658631161433600,3.80543359375,0.01198465283960104,0.02710076980292797,-0.002455624286085367
1769658631171421700,3.815421630859375,0.009765174239873886,0.019418083131313324,-0.008218438364565372
1769658631181409800,3.825409912109375,0.0025498727336525917,0.008219050243496895,-0.00847566220909357
1769658631191396600,3.835396728515625,-0.004710436798632145,-0.005308209452778101,-0.006858324632048607
1769658631201384700,3.845384765625,-0.013065041042864323,-0.011799049563705921,-0.00257470621727407
1769658631211372800,3.855372802734375,-0.015181454829871655,-0.01879916898906231,-0.0033680617343634367
1769658631221360600,3.865360595703125,-0.01670127734541893,-0.020931769162416458,-0.009626612067222595
1769658631231348700,3.8753486328125,-0.015601658262312412,-0.02033069357275963,-0.016293836757540703
1769658631241335600,3.88533544921875,-0.015248744748532772,-0.018385639414191246,-0.021746473386883736
1769658631251323600,3.89532373046875,-0.009265953674912453,-0.017888693138957024,-0.023495638743042946
1769658631261311700,3.905311767578125,-0.0017018186626955867,-0.010767882689833641,-0.022264190018177032
1769658631271299800,3.9152998046875,0.006185665726661682,-0.002371202688664198,-0.022806409746408463
1769658631281287700,3.92528759765625,0.010037971660494804,0.00925780925899744,-0.023348746821284294
1769658631291275800,3.93527587890625,0.00793647114187479,0.016158858314156532,-0.022822506725788116
1769658631301262800,3.945262939453125,0.000977008487097919,0.010241005569696426,-0.02324642986059189
1769658631311250700,3.955250732421875,-0.005184480920433998,-0.003514487762004137,-0.023966016247868538
1769658631321238800,3.96523876953125,-0.005483908113092184,-0.014096231199800968,-0.017258640378713608
1769658631331227000,3.975226806640625,-0.00424047838896513,-0.005945361219346523,-0.014062847010791302
1769658631341214700,3.985214599609375,-0.0001709464704617858,-0.003809920512139797,-0.012094156816601753
1769658631351201800,3.995201904296875,0.0031878319568932056,-0.002997123636305332,-0.012026511132717133
1769658631361190000,4.00518994140625,0.001877823262475431,0.0004609909374266863,-0.010396923869848251
1769658631371177700,4.015177734375,-0.0003059688024222851,-0.005183312576264143,-0.00972980260848999
1769658631381165800,4.025165771484375,-0.0068665761500597,-0.003038279479369521,-0.009458019398152828
1769658631391154000,4.03515380859375,-0.006079612299799919,-0.00182840577326715,-0.006660102866590023
1769658631401140700,4.045140625,-0.003311700187623501,0.0009458401473239064,-0.00640886602923274
1769658631411128800,4.05512890625,-0.0004986029816791415,0.010648001916706562,-0.008437128737568855
1769658631421117000,4.065116943359375,0.0008150439243763685,0.015579430386424065,-0.016990579664707184
1769658631431104800,4.075104736328125,0.0022126708645373583,0.012603347189724445,-0.020061204209923744
1769658631441092600,4.085092529296875,0.0013132347958162427,0.008127543143928051,-0.022586597129702568
1769658631451080000,4.095079833984375,0.004498375114053488,0.004722691606730223,-0.018535930663347244
1769658631461067800,4.10506787109375,0.0033888546749949455,0.009659222327172756,-0.01868228055536747
1769658631471056000,4.115055908203125,0.002744902390986681,0.019981900230050087,-0.024551087990403175
1769658631481043700,4.125043701171875,-0.001677940133959055,0.025740278884768486,-0.03583879768848419
1769658631491031600,4.135031494140625,-0.006254582200199366,0.03166181966662407,-0.046145763248205185
1769658631501019600,4.14501953125,-0.012366225011646748,0.02810709923505783,-0.04680117592215538
1769658631511006700,4.1550068359375,-0.01220377255231142,0.02178555354475975,-0.04428954795002937
1769658631520994600,4.16499462890625,-0.015624558553099632,0.013229860924184322,-0.03861945867538452
1769658631530982700,4.174982666015625,-0.01176190935075283,0.002770296297967434,-0.03135222941637039
1769658631540970800,4.184970703125,-0.008393055759370327,0.0024692860897630453,-0.02427486516535282
1769658631550958600,4.19495849609375,-0.0056289611384272575,0.008907478302717209,-0.01615248993039131
1769658631560945700,4.204945556640625,-0.0020690257661044598,0.013718058355152607,-0.014163617044687271
1769658631570933800,4.214933837890625,0.0012918832944706082,0.010834653861820698,-0.012236020527780056
1769658631580921600,4.224921630859375,0.002485024742782116,0.01177472434937954,-0.010762537829577923
1769658631590909700,4.23490966796875,-0.0021249069832265377,0.01478542760014534,-0.010483704507350922
1769658631600897800,4.244897705078125,-0.010784396901726723,0.015716977417469025,-0.015167451463639736
1769658631610886000,4.254885986328125,-0.019103312864899635,0.01472974382340908,-0.02502647414803505
1769658631620872700,4.264872802734375,-0.021885961294174194,0.009861156344413757,-0.034879039973020554
1769658631630860800,4.27486083984375,-0.02095305733382702,-0.0010530108120292425,-0.03426198661327362
1769658631640848600,4.2848486328125,-0.01745162159204483,-0.0036369329318404198,-0.02455277368426323
1769658631650836700,4.294836669921875,-0.013411873020231724,-0.0007119830697774887,-0.012235919013619423
1769658631660824800,4.304824951171875,-0.008672953583300114,0.0070624398067593575,-0.00514964060857892
1769658631670811600,4.314811767578125,-0.006415126379579306,0.014716098085045815,-0.010585951618850231
1769658631680799700,4.3247998046875,-0.005518529564142227,0.0204569511115551,-0.0208139605820179
1769658631690787800,4.334787841796875,-0.004462053533643484,0.022532351315021515,-0.030138488858938217
1769658631700776000,4.34477587890625,-0.0033227531239390373,0.01973683387041092,-0.03159470483660698
1769658631710763800,4.354763671875,-0.004619978833943605,0.022731292992830276,-0.028670553117990494
1769658631720751900,4.364751953125,-0.005544715560972691,0.024494312703609467,-0.023410696536302567
1769658631730738700,4.37473876953125,-0.007389221340417862,0.01717301830649376,-0.02023301273584366
1769658631740726800,4.384726806640625,-0.011192171834409237,0.008395439013838768,-0.019230324774980545
1769658631750715000,4.39471484375,-0.013725902885198593,0.0023247632198035717,-0.016170885413885117
1769658631760703000,4.404702880859375,-0.0185179952532053,0.004082904197275639,-0.013788348063826561
1769658631770690600,4.414690673828125,-0.022232571616768837,0.010145856998860836,-0.014731906354427338
1769658631780678000,4.424677978515625,-0.019838877022266388,0.013786357827484608,-0.01782878488302231
1769658631790665700,4.434665771484375,-0.01673656329512596,0.016306772828102112,-0.02030525915324688
1769658631800653800,4.44465380859375,-0.013706905767321587,0.01768244430422783,-0.022297918796539307
1769658631810641700,4.4546416015625,-0.012109008617699146,0.011976356618106365,-0.02634991705417633
1769658631820629800,4.464629638671875,-0.01236893329769373,0.014494908042252064,-0.02706684172153473
1769658631830617600,4.47461767578125,-0.011676511727273464,0.0205093901604414,-0.027148332446813583
1769658631840604700,4.484604736328125,-0.009661964140832424,0.022046029567718506,-0.021207677200436592
1769658631850592800,4.4945927734375,-0.009624147787690163,0.018055815249681473,-0.01673942618072033
1769658631860580600,4.50458056640625,-0.011467053554952145,0.017747966572642326,-0.019743625074625015
1769658631870568700,4.514568603515625,-0.01427056360989809,0.026413094252347946,-0.025960242375731468
1769658631880556800,4.524556884765625,-0.014907237142324448,0.02688094787299633,-0.03273019939661026
1769658631890543600,4.534543701171875,-0.013763675466179848,0.02995263785123825,-0.030997812747955322
1769658631900531700,4.54453173828125,-0.01142541877925396,0.03536304458975792,-0.03026750311255455
1769658631910519800,4.554519775390625,-0.008627768605947495,0.03451988473534584,-0.030351661145687103
1769658631920507600,4.564507568359375,-0.0033176932483911514,0.03970574587583542,-0.028899583965539932
1769658631930495700,4.574495849609375,0.0005076715024188161,0.03598424419760704,-0.027651358395814896
1769658631940483800,4.58448388671875,0.0032532140612602234,0.026667393743991852,-0.028349731117486954
1769658631950471000,4.594470947265625,0.0010081694927066565,0.03645104914903641,-0.028469573706388474
1769658631960459000,4.604458984375,0.0018433358054608107,0.05261571705341339,-0.03129446133971214
1769658631970446800,4.61444677734375,0.001073948573321104,0.06182040274143219,-0.03602024167776108
1769658631980435000,4.62443505859375,0.001914708991535008,0.05995335057377815,-0.04275320842862129
1769658631990423000,4.634423095703125,0.0018204330699518323,0.05745956674218178,-0.05219597741961479
1769658632000409900,4.644409912109375,-0.0008033124031499028,0.053214509040117264,-0.05656904727220535
1769658632010398000,4.65439794921875,-0.003885921323671937,0.045571502298116684,-0.057010866701602936
1769658632020386000,4.664385986328125,0.0017848802963271737,0.05268002673983574,-0.056346625089645386
1769658632030374000,4.674373779296875,0.0059633804485201836,0.06478702276945114,-0.05655621364712715
1769658632040362000,4.684362060546875,0.012101653963327408,0.06561587750911713,-0.05482529103755951
1769658632050349800,4.694349853515625,0.017071377485990524,0.056412260979413986,-0.04854981601238251
1769658632060337000,4.7043369140625,0.01577100157737732,0.054060302674770355,-0.0450529046356678
1769658632070325000,4.714324951171875,0.010337887331843376,0.05591439828276634,-0.043337561190128326
1769658632080313000,4.72431298828125,0.005587252788245678,0.050649311393499374,-0.048906754702329636
1769658632090300700,4.73430078125,-0.00021018227562308311,0.03834550455212593,-0.05669969692826271
1769658632100288800,4.744288818359375,-0.005177200771868229,0.023125767707824707,-0.058015454560518265
1769658632110276000,4.754276123046875,-0.005241649225354195,0.012980454601347446,-0.05027124658226967
1769658632120264000,4.764263916015625,-0.003637537360191345,0.004599270410835743,-0.03575627878308296
1769658632130251800,4.774251708984375,-0.0031323356088250875,-0.004155338741838932,-0.021226871758699417
1769658632140240000,4.784239990234375,-0.0024719606153666973,-0.00927566085010767,-0.014661516062915325
1769658632150228000,4.79422802734375,-0.0019457200542092323,-0.007335281930863857,-0.010676095262169838
1769658632160215800,4.8042158203125,0.0004145504208281636,-0.009068060666322708,-0.010155851021409035
1769658632170203000,4.814202880859375,0.0019394763512536883,-0.011837480589747429,-0.010283149778842926
1769658632180190700,4.824190673828125,0.0005738080944865942,-0.013531595468521118,-0.012753957882523537
1769658632190178800,4.8341787109375,-0.0016464692307636142,-0.016041090711951256,-0.018623564392328262
1769658632200167000,4.8441669921875,-0.005292248912155628,-0.018942058086395264,-0.018970584496855736
1769658632210155000,4.854155029296875,-0.006824898533523083,-0.013062064535915852,-0.012950241565704346
1769658632220141800,4.864141845703125,-0.005218078847974539,-0.005374650936573744,-0.010268844664096832
1769658632230130000,4.8741298828125,-0.0008225315250456333,0.00510062649846077,-0.0105519387871027
1769658632240118000,4.884117919921875,-0.00162227894179523,0.018138568848371506,-0.0135903749614954
1769658632250105900,4.89410595703125,0.00023287907242774963,0.02411630004644394,-0.01497788168489933
1769658632260094000,4.904093994140625,0.00027429137844592333,0.023328283801674843,-0.015784500166773796
1769658632270082000,4.91408203125,0.0015225150855258107,0.020402267575263977,-0.014333078637719154
1769658632280068900,4.92406884765625,0.002939449157565832,0.016196932643651962,-0.009177855215966702
1769658632290057000,4.934056884765625,0.007872155867516994,0.017013724893331528,-0.006714431568980217
1769658632300045000,4.944045166015625,0.007666205056011677,0.026006940752267838,-0.008231360465288162
1769658632310033000,4.954032958984375,0.0022043283097445965,0.032250721007585526,-0.015463707968592644
1769658632320021000,4.96402099609375,0.005991787649691105,0.030829530209302902,-0.01992969773709774
1769658632330009000,4.974009033203125,0.0085465582087636,0.036209385842084885,-0.0205994825810194
1769658632339996000,4.983995849609375,0.015277874656021595,0.04374236986041069,-0.013058843091130257
1769658632349984000,4.99398388671875,0.019565830007195473,0.04910917207598686,-0.004897586070001125
1769658632359972000,5.00397216796875,0.019799256697297096,0.053332939743995667,-0.0011657541617751122
1769658632369960000,5.0139599609375,0.014843912795186043,0.051997628062963486,0.00035624229349195957
1769658632379947800,5.02394775390625,0.011131510138511658,0.04081668332219124,-0.0005234088748693466
1769658632389935000,5.03393505859375,0.007612941786646843,0.030193865299224854,0.0011376047041267157
1769658632399923000,5.0439228515625,0.009956300258636475,0.021877482533454895,0.006036561913788319
1769658632409911000,5.0539111328125,0.015751073136925697,0.015258194878697395,0.016675889492034912
1769658632419899000,5.06389892578125,0.01634984090924263,0.025190936401486397,0.025916434824466705
1769658632429886700,5.07388671875,0.017580755054950714,0.03476713225245476,0.028739120811223984
1769658632439874800,5.083874755859375,0.015638066455721855,0.026891130954027176,0.022078122943639755
1769658632449862000,5.09386181640625,0.008671503514051437,0.028628310188651085,0.012044929899275303
1769658632459849700,5.103849609375,0.005573182366788387,0.028703585267066956,0.008814212866127491
1769658632469837800,5.113837890625,0.0032823309302330017,0.021969247609376907,0.007368648890405893
1769658632479826000,5.123825927734375,0.0033015506342053413,0.019388793036341667,0.01019311510026455
1769658632489813800,5.133813720703125,0.0037468308582901955,0.017201274633407593,0.015503192320466042
1769658632499800800,5.14380078125,0.005585078150033951,0.013049320317804813,0.0196249857544899
1769658632509789000,5.153788818359375,0.006772048771381378,0.011996306478977203,0.021719560027122498
1769658632519776800,5.16377685546875,0.0035029305145144463,0.00948740541934967,0.01970508135855198
1769658632529764900,5.173764892578125,-0.0026777340099215508,0.0028372262604534626,0.016790783032774925
1769658632539753000,5.1837529296875,-0.011685699224472046,-0.004707247018814087,0.017114093527197838
1769658632549740800,5.19374072265625,-0.017981411889195442,-0.010302282869815826,0.01639637164771557
1769658632559727900,5.203727783203125,-0.021553954109549522,-0.012310833670198917,0.019983647391200066
1769658632569716000,5.213716064453125,-0.016874779015779495,-0.00889959093183279,0.026657529175281525
1769658632579703800,5.223703857421875,-0.010329972952604294,-0.007035708054900169,0.025738269090652466
1769658632589692000,5.23369189453125,-0.0036949729546904564,-0.011286112479865551,0.021655909717082977
1769658632599680000,5.243679931640625,-0.0005052614724263549,-0.010673623532056808,0.016002129763364792
1769658632609668000,5.253668212890625,0.0004444217775017023,-0.005654630716890097,0.018000831827521324
1769658632619655000,5.263655029296875,-0.0026558078825473785,0.005286111496388912,0.015032593160867691
1769658632629643000,5.27364306640625,-0.007735255174338818,0.009366607293486595,0.007939529605209827
1769658632639630800,5.283630859375,-0.010633927769958973,0.009108969941735268,0.0019860046450048685
1769658632649619000,5.293618896484375,-0.010722078382968903,0.0050148931331932545,-0.0009852841030806303
1769658632659607000,5.30360693359375,-0.008112846873700619,-0.0040226285345852375,0.0006171574350446463
1769658632669593900,5.31359375,-0.004817450884729624,-0.009080237708985806,0.003769274801015854
1769658632679582000,5.32358203125,-0.003286044578999281,-0.01002456247806549,0.003966982010751963
1769658632689570000,5.333570068359375,-0.001908657606691122,-0.006023163441568613,0.005545703694224358
1769658632699558100,5.34355810546875,-0.0012587129604071379,-0.0037146504037082195,0.0068205418065190315
1769658632709545700,5.353545654296875,-0.0012632403522729874,-0.0008940966799855232,0.0126723051071167
1769658632719533800,5.363533935546875,-0.0019279656698927283,-0.001779160462319851,0.01620335504412651
1769658632729521000,5.37352099609375,-0.0016384799964725971,-0.00930046010762453,0.018816180527210236
1769658632739509000,5.383509033203125,-0.0044474489986896515,-0.012857729569077492,0.02015923149883747
1769658632749496800,5.393496826171875,-0.007476528640836477,-0.016825571656227112,0.021098796278238297
1769658632759485000,5.40348486328125,-0.007115359418094158,-0.023624740540981293,0.01729518547654152
1769658632769472800,5.41347265625,-0.006049029529094696,-0.011674071662127972,0.01802329532802105
1769658632779459800,5.4234599609375,-0.004059692844748497,-0.005133302882313728,0.019503897055983543
1769658632789448000,5.433447998046875,0.0019185711862519383,-0.011868969537317753,0.023307956755161285
1769658632799435800,5.443435791015625,0.0033007515594363213,-0.018486052751541138,0.021038874983787537
1769658632809424000,5.453423828125,0.004426470026373863,-0.015262030996382236,0.020901188254356384
1769658632819412000,5.463411865234375,0.0035931668244302273,-0.005220921244472265,0.021608060225844383
1769658632829399800,5.47339990234375,0.0036325817927718163,-0.003439532592892647,0.017954470589756966
1769658632839387000,5.483386962890625,0.002525061834603548,-0.0023001283407211304,0.011427893303334713
1769658632849375000,5.493375,0.0011141190771013498,0.0036850599572062492,0.009873938746750355
1769658632859362800,5.50336279296875,0.00004494877066463232,0.011950843036174774,0.0020188135094940662
1769658632869351000,5.513350830078125,0.000626583001576364,0.01951155625283718,-0.005631116218864918
1769658632879339000,5.523339111328125,-0.0009768175659701228,0.018769703805446625,-0.002788693644106388
1769658632889326800,5.533326904296875,0.0031414944678545,0.016228515654802322,0.007057811599224806
1769658632899314000,5.54331396484375,0.007108006626367569,0.018129384145140648,0.016363393515348434
1769658632909302000,5.553302001953125,0.012874549254775047,0.020101988688111305,0.02354780212044716
1769658632919289900,5.563289794921875,0.015765897929668427,0.02625739574432373,0.017847994342446327
1769658632929278000,5.57327783203125,0.012216438539326191,0.03323754295706749,0.008520537987351418
1769658632939266000,5.58326611328125,0.010074589401483536,0.03698938339948654,0.004010308533906937
1769658632949252600,5.593252685546875,0.011457035318017006,0.03777794539928436,0.005689431447535753
1769658632959240400,5.603240478515625,0.01831955835223198,0.03835412114858627,0.009185612201690674
1769658632969228500,5.613228515625,0.021282859146595,0.03677912801504135,0.01084582693874836
1769658632979216600,5.623216552734375,0.023946773260831833,0.035958122462034225,0.00987259205430746
1769658632989204500,5.63320458984375,0.020012222230434418,0.041791245341300964,0.005054667126387358
1769658632999192600,5.643192626953125,0.013835018500685692,0.04583083093166351,0.00040988088585436344
1769658633009179600,5.6531796875,0.013337274082005024,0.044517889618873596,-0.0027523564640432596
1769658633019167500,5.66316748046875,0.015697188675403595,0.03871280699968338,-0.0023087458685040474
1769658633029155600,5.673155517578125,0.02005891501903534,0.03215211257338524,0.0046743289567530155
1769658633039143700,5.683143798828125,0.020961282774806023,0.025340937077999115,0.009725150652229786
1769658633049131500,5.693131591796875,0.019105859100818634,0.02217710018157959,0.012503094039857388
1769658633059118600,5.70311865234375,0.015650805085897446,0.019890330731868744,0.013063937425613403
1769658633069106700,5.713106689453125,0.00959797389805317,0.028973573818802834,0.013443171977996826
1769658633079094500,5.723094482421875,0.006652296055108309,0.03125225007534027,0.018957234919071198
1769658633089082400,5.733082275390625,0.009472583420574665,0.03107994608581066,0.027133671566843987
1769658633099070500,5.743070556640625,0.010883215814828873,0.02154408022761345,0.030709313228726387
1769658633109058300,5.753058349609375,0.006218955386430025,0.007740917149931192,0.02579604834318161
1769658633119045400,5.76304541015625,-0.0004403236089274287,0.0018362733535468578,0.01315836701542139
1769658633129033500,5.773033447265625,-0.009740082547068596,-0.002463400363922119,0.005927618592977524
1769658633139021300,5.783021240234375,-0.011270423419773579,-0.006245484575629234,0.007854280062019825
1769658633149009400,5.793009521484375,-0.0066983080469071865,-0.006615930236876011,0.015337229706346989
1769658633158997500,5.80299755859375,0.0019198585068807006,-0.003927040379494429,0.02276368997991085
1769658633168985600,5.812985595703125,0.009039820171892643,-0.00043723429553210735,0.026181058958172798
1769658633178972400,5.822972412109375,0.010573001578450203,0.0014907964505255222,0.022633161395788193
1769658633188960500,5.83296044921875,0.008938619866967201,0.0043507651425898075,0.01570255123078823
1769658633198948400,5.8429482421875,0.005828535184264183,0.00463351933285594,0.017137739807367325
1769658633208936400,5.8529365234375,0.003441011067479849,0.0019341392908245325,0.013901999220252037
1769658633218924500,5.862924560546875,0.0019169290317222476,0.0009641210781410336,0.011223681271076202
1769658633228912600,5.87291259765625,-0.003130560042336583,0.004448334686458111,0.007352243177592754
1769658633238899500,5.8828994140625,-0.0052099572494626045,0.006616298574954271,0.004879089072346687
1769658633248887600,5.892887451171875,-0.007319713477045298,0.006781414616852999,0.010070654563605785
1769658633258875600,5.902875732421875,-0.006695689633488655,0.0011676379945129156,0.013497370295226574
1769658633268863500,5.912863525390625,-0.0057984706945717335,-0.0022270935587584972,0.010633673518896103
1769658633278851600,5.9228515625,-0.004396316595375538,-0.0004091446753591299,0.008583500981330872
1769658633288838400,5.93283837890625,-0.003331584855914116,0.005280432291328907,0.00554856238886714
1769658633298826500,5.942826416015625,-0.0037245340645313263,0.008719553239643574,-0.00029918900690972805
1769658633308814600,5.952814697265625,-0.002405736828222871,0.006624710746109486,-0.007238587364554405
1769658633318802700,5.962802734375,-0.000811169040389359,0.0002458494855090976,-0.009529851377010345
1769658633328790500,5.97279052734375,-0.0021872243378311396,-0.005731615237891674,-0.005599558353424072
1769658633338778400,5.9827783203125,-0.0026419591158628464,-0.0071920352056622505,-0.0040433271788060665
1769658633348765700,5.992765625,-0.0030891038477420807,-0.005064436234533787,-0.003960236441344023
1769658633358753500,6.00275341796875,-0.00016220100224018097,0.008400271646678448,-0.004479452036321163
1769658633368741600,6.01274169921875,0.0008998675039038062,0.008422642014920712,-0.014622100628912449
1769658633378729500,6.0227294921875,0.0014333432773128152,0.00673950370401144,-0.01941477321088314
1769658633388717300,6.03271728515625,0.006180960219353437,0.016563639044761658,-0.015398193150758743
1769658633398705400,6.042705322265625,0.008998140692710876,0.024534078314900398,-0.008599808439612389
1769658633408692500,6.0526923828125,0.006442305166274309,0.028377551585435867,-0.005876726005226374
1769658633418680300,6.062680419921875,0.0046630920842289925,0.020292149856686592,-0.006219359580427408
1769658633428668400,6.07266845703125,-0.00014870741870254278,0.00914735160768032,-0.007248139474540949
1769658633438656500,6.082656494140625,-0.004839821718633175,0.004242300987243652,-0.010265123099088669
1769658633448644400,6.092644287109375,-0.008894484490156174,0.00038551108445972204,-0.013769576326012611
1769658633458631400,6.10263134765625,-0.007746528368443251,0.007873360998928547,-0.014783087186515331
1769658633468619500,6.11261962890625,-0.0035571097396314144,0.01917768083512783,-0.013766291551291943
1769658633478607400,6.122607421875,-0.0017193075036630034,0.028400888666510582,-0.01682128757238388
1769658633488595500,6.132595458984375,-0.0004588334122672677,0.0320102721452713,-0.020085792988538742
1769658633498583600,6.14258349609375,0.0037841596640646458,0.02724393643438816,-0.023679448291659355
1769658633508571400,6.1525712890625,0.006934146862477064,0.0244635958224535,-0.02256864309310913
1769658633518558500,6.162558349609375,0.009941344149410725,0.028211047872900963,-0.014322347939014435
1769658633528546600,6.172546630859375,0.014401072636246681,0.02740357629954815,-0.010257032699882984
1769658633538534400,6.182534423828125,0.013421384617686272,0.027238517999649048,-0.0107194185256958
1769658633548522500,6.1925224609375,0.011417622677981853,0.02664836123585701,-0.0054801818914711475
1769658633558510600,6.202510498046875,0.004252343904227018,0.018765058368444443,-0.0033706773538142443
1769658633568498700,6.212498779296875,0.0013606834691017866,0.010197138413786888,-0.006834917701780796
1769658633578485500,6.222485595703125,-0.0016225450672209263,0.007541680242866278,-0.010007323697209358
1769658633588473600,6.2324736328125,-0.004395162221044302,0.009320405311882496,-0.005451453384011984
1769658633598461400,6.24246142578125,-0.002178479917347431,0.00913726445287466,-0.0023566109593957663
1769658633608449500,6.252449462890625,0.0009150478290393949,0.011829986236989498,0.003963869530707598
1769658633618437600,6.262437744140625,0.0041926889680325985,0.015855219215154648,0.0026364175137132406
1769658633628425500,6.272425537109375,0.0052947052754461765,0.01809174008667469,-0.0005977253895252943
1769658633638412500,6.28241259765625,0.0008539281552657485,0.0210472010076046,-0.008448274806141853
1769658633648400600,6.292400634765625,-0.0006294525228440762,0.022034168243408203,-0.012084022164344788
1769658633658388500,6.302388427734375,0.0014175416436046362,0.021875478327274323,-0.010321708396077156
1769658633668376300,6.312376220703125,0.0023112983908504248,0.027318179607391357,-0.011560611426830292
1769658633678364400,6.322364501953125,0.0019935835152864456,0.030067600309848785,-0.017599165439605713
1769658633688351500,6.3323515625,-0.00190288748126477,0.027645988389849663,-0.023095130920410156
1769658633698339600,6.342339599609375,-0.0017451845342293382,0.025280846282839775,-0.02461734227836132
1769658633708327400,6.352327392578125,-0.0025550518184900284,0.01990019530057907,-0.020480386912822723
1769658633718315500,6.3623154296875,0.000296084675937891,0.02246161177754402,-0.01324516348540783
1769658633728303400,6.372303466796875,0.0008609411306679249,0.026837186887860298,-0.009382515214383602
1769658633738291500,6.38229150390625,0.0012923727044835687,0.02745414525270462,-0.010795358568429947
1769658633748278300,6.3922783203125,-0.0014778473414480686,0.026220835745334625,-0.015721140429377556
1769658633758266400,6.402266357421875,-0.004182242788374424,0.02301119826734066,-0.023344915360212326
1769658633768254500,6.41225439453125,-0.004014197271317244,0.016370074823498726,-0.026817146688699722
1769658633778242600,6.42224267578125,-0.0034245289862155914,0.012078151106834412,-0.023874573409557343
1769658633788230400,6.43223046875,-0.0023464816622436047,0.008704991079866886,-0.02072804979979992
1769658633798218500,6.442218505859375,0.0007938293274492025,0.001515078591182828,-0.016931675374507904
1769658633808205600,6.45220556640625,0.001625534612685442,-0.0004521985538303852,-0.01654178835451603
1769658633818193400,6.462193359375,-0.001184854656457901,0.004930801689624786,-0.020212305709719658
1769658633828181500,6.472181396484375,-0.005698912777006626,0.009112230502068996,-0.023789197206497192
1769658633838169600,6.482169677734375,-0.010821682401001453,0.012714325450360775,-0.029444726184010506
1769658633848157400,6.492157470703125,-0.0119111817330122,0.015635279938578606,-0.034133754670619965
1769658633858145500,6.5021455078125,-0.007825136184692383,0.010111864656209946,-0.03245494142174721
1769658633868132600,6.512132568359375,-0.004806709475815296,0.0008603091118857265,-0.02652088552713394
1769658633878120400,6.522120361328125,0.001054819324053824,-0.012342077679932117,-0.018959473818540573
1769658633888108500,6.532108642578125,0.0033941403962671757,-0.016080889850854874,-0.020425010472536087
1769658633898096600,6.5420966796875,0.0006386996246874332,-0.009169025346636772,-0.027208704501390457
1769658633908084500,6.55208447265625,-0.007291128858923912,-0.004416081588715315,-0.03439098596572876
1769658633918072600,6.562072509765625,-0.01350761204957962,-0.0074550434947013855,-0.043058283627033234
1769658633928059600,6.5720595703125,-0.015535609796643257,-0.016702070832252502,-0.04596352577209473
1769658633938047500,6.582047607421875,-0.014981892891228199,-0.022761013358831406,-0.04185075685381889
1769658633948035600,6.59203564453125,-0.014768040738999844,-0.03459183871746063,-0.03094564378261566
1769658633958024000,6.60202392578125,-0.018699754029512405,-0.041252776980400085,-0.027912603691220284
1769658633968012000,6.612011962890625,-0.018627848476171494,-0.04090443253517151,-0.0296348687261343
1769658633977998800,6.621998779296875,-0.02061026357114315,-0.04011368751525879,-0.03582869842648506
1769658633987987000,6.631987060546875,-0.018846452236175537,-0.0367535799741745,-0.03754910081624985
1769658633997975000,6.64197509765625,-0.014320985414087772,-0.03265822306275368,-0.033106833696365356
1769658634007963000,6.651962890625,-0.008945394307374954,-0.03484068065881729,-0.027206333354115486
1769658634017951000,6.661950927734375,-0.0061741978861391544,-0.03124305047094822,-0.02145586907863617
1769658634027939000,6.67193896484375,-0.006331857293844223,-0.022202419117093086,-0.015953246504068375
1769658634037926000,6.68192578125,-0.0032584816217422485,-0.017513420432806015,-0.012423860840499401
1769658634047914000,6.6919140625,-0.0023902910761535168,-0.012380444444715977,-0.012362875044345856
1769658634057902000,6.701902099609375,0.0010978729696944356,-0.012107353657484055,-0.008245010860264301
1769658634067890000,6.711889892578125,0.00027682026848196983,-0.01726509816944599,-0.008020507171750069
1769658634077878000,6.7218779296875,-0.002485276199877262,-0.023492485284805298,-0.005253296811133623
1769658634087866000,6.7318662109375,-0.006623296067118645,-0.03096691332757473,-0.001952841877937317
1769658634097853000,6.74185302734375,-0.009449709206819534,-0.038393836468458176,0.0009135518921539187
1769658634107841000,6.751841064453125,-0.009094975888729095,-0.03665798902511597,0.0011742752976715565
1769658634117829000,6.7618291015625,-0.001892722793854773,-0.02452775463461876,-0.0009877460543066263
1769658634127817000,6.77181689453125,0.0005616463022306561,-0.01940729469060898,-0.0032988369930535555
1769658634137805000,6.78180517578125,0.00043279374949634075,-0.022336257621645927,-0.00942548830062151
1769658634147793200,6.791793212890625,-0.004866896662861109,-0.031881559640169144,-0.01415446400642395
1769658634157780000,6.801780029296875,-0.00994727574288845,-0.04030485451221466,-0.022770274430513382
1769658634167768000,6.81176806640625,-0.016246983781456947,-0.04536778852343559,-0.029332570731639862
1769658634177756200,6.821756103515625,-0.017377760261297226,-0.04954339191317558,-0.03467097505927086
1769658634187744000,6.831743896484375,-0.01326024904847145,-0.0514046773314476,-0.03355218097567558
1769658634197732000,6.841732177734375,-0.013104142621159554,-0.04613269865512848,-0.03945086523890495
1769658634207720000,6.851719970703125,-0.01831595040857792,-0.04464133083820343,-0.04707522690296173
1769658634217707000,6.86170703125,-0.026361314579844475,-0.05197153240442276,-0.05623019486665726
1769658634227695000,6.871695068359375,-0.033281538635492325,-0.06373657286167145,-0.06190725415945053
1769658634237683000,6.881682861328125,-0.03600732609629631,-0.06793217360973358,-0.0616203173995018
1769658634247670800,6.8916708984375,-0.03181737661361694,-0.0785781592130661,-0.06634502857923508
1769658634257659000,6.901658935546875,-0.024628128856420517,-0.08722342550754547,-0.06266728788614273
1769658634267647000,6.91164697265625,-0.020665878430008888,-0.09135612100362778,-0.05684375390410423
1769658634277633800,6.9216337890625,-0.021376898512244225,-0.09596936404705048,-0.04934011399745941
1769658634287622000,6.931621826171875,-0.02533142641186714,-0.10080486536026001,-0.04621649160981178
1769658634297610000,6.94160986328125,-0.031619682908058167,-0.10907041281461716,-0.04623989760875702
1769658634307597800,6.951597900390625,-0.038047488778829575,-0.11534561961889267,-0.050665274262428284
1769658634317586000,6.9615859375,-0.04026971757411957,-0.11500184237957001,-0.055499542504549026
1769658634327574000,6.971573974609375,-0.04539124295115471,-0.10769572854042053,-0.059094808995723724
1769658634337560800,6.981560791015625,-0.046660415828228,-0.09986487030982971,-0.058052144944667816
1769658634347549000,6.991548828125,-0.04667133465409279,-0.09712208062410355,-0.06283411383628845
1769658634357537000,7.001537109375,-0.04209074005484581,-0.10701204836368561,-0.059982288628816605
1769658634367525000,7.011525146484375,-0.038633957505226135,-0.11809053272008896,-0.05717211961746216
1769658634377513000,7.021512939453125,-0.03430929780006409,-0.12592336535453796,-0.04821682721376419
1769658634387501000,7.0315009765625,-0.03133028745651245,-0.1213856115937233,-0.04106543958187103
1769658634397487900,7.04148779296875,-0.027551613748073578,-0.11546020954847336,-0.03849242627620697
1769658634407476000,7.05147607421875,-0.023557670414447784,-0.10157395154237747,-0.034378644078969955
1769658634417464000,7.061464111328125,-0.019113833084702492,-0.08979252725839615,-0.03788216412067413
1769658634427452200,7.0714521484375,-0.009764006361365318,-0.0974576398730278,-0.034891702234745026
1769658634437440000,7.08143994140625,-0.0023073777556419373,-0.09668074548244476,-0.033604979515075684
1769658634447427000,7.091427001953125,-0.004260540008544922,-0.08537695556879044,-0.03930467739701271
1769658634457415200,7.101415283203125,-0.012351535260677338,-0.08908785879611969,-0.043618619441986084
1769658634467403000,7.111403076171875,-0.024846021085977554,-0.0849170833826065,-0.05068691074848175
1769658634477391000,7.12139111328125,-0.038009002804756165,-0.0808713510632515,-0.05404853820800781
1769658634487379200,7.131379150390625,-0.04128921777009964,-0.0934944674372673,-0.05470526963472366
1769658634497366800,7.14136669921875,-0.03663792088627815,-0.11551322042942047,-0.05030013248324394
1769658634507354000,7.15135400390625,-0.03660862520337105,-0.10155639052391052,-0.04161769524216652
1769658634517342200,7.16134228515625,-0.029860753566026688,-0.0935240089893341,-0.04432661831378937
1769658634527330000,7.171330078125,-0.025275055319070816,-0.11913697421550751,-0.04975254088640213
1769658634537318000,7.18131787109375,-0.025989271700382233,-0.12250195443630219,-0.05224497616291046
1769658634547306000,7.191305908203125,-0.02993820607662201,-0.1264929622411728,-0.05037996545433998
1769658634557293800,7.2012939453125,-0.028974808752536774,-0.1368226557970047,-0.046872567385435104
1769658634567281000,7.211281005859375,-0.028093568980693817,-0.14258387684822083,-0.04414176195859909
1769658634577269000,7.22126904296875,-0.030232751742005348,-0.137455016374588,-0.042559124529361725
1769658634587256800,7.2312568359375,-0.03955541178584099,-0.1294381022453308,-0.044306423515081406
1769658634597245000,7.241244873046875,-0.045984238386154175,-0.12186450511217117,-0.048806119710206985
1769658634607233000,7.25123291015625,-0.04657040163874626,-0.1098208948969841,-0.05009615421295166
1769658634617220900,7.261220947265625,-0.0467984601855278,-0.12127082794904709,-0.04691188037395477
1769658634627208000,7.2712080078125,-0.04150303080677986,-0.13285955786705017,-0.04579734802246094
1769658634637196000,7.281196044921875,-0.0428912416100502,-0.1368994116783142,-0.044655680656433105
1769658634647184000,7.291183837890625,-0.04962664470076561,-0.14851532876491547,-0.042839404195547104
1769658634657172000,7.301171875,-0.0593874417245388,-0.151337131857872,-0.042189087718725204
1769658634667160000,7.31116015625,-0.06416009366512299,-0.15538327395915985,-0.03997919708490372
1769658634677148200,7.321148193359375,-0.07133296132087708,-0.16403049230575562,-0.03629690036177635
1769658634687135000,7.331135009765625,-0.06617468595504761,-0.1770504117012024,-0.041736140847206116
1769658634697123000,7.341123046875,-0.06633593887090683,-0.18871808052062988,-0.03833899274468422
1769658634707111000,7.35111083984375,-0.0653391182422638,-0.17957331240177155,-0.03113487921655178
1769658634717099000,7.36109912109375,-0.06309030205011368,-0.15131686627864838,-0.03310893103480339
1769658634727087000,7.371087158203125,-0.05270024389028549,-0.14085809886455536,-0.03622882440686226
1769658634737075200,7.3810751953125,-0.04206717386841774,-0.14336198568344116,-0.0379108265042305
1769658634747062000,7.39106201171875,-0.036811426281929016,-0.12102524936199188,-0.0447000227868557
1769658634757050000,7.401050048828125,-0.04117780923843384,-0.1092751994729042,-0.05814710259437561
1769658634767038200,7.4110380859375,-0.05155321955680847,-0.10227321833372116,-0.06846579164266586
1769658634777026000,7.421026123046875,-0.061526890844106674,-0.11406710743904114,-0.07880762964487076
1769658634787014000,7.431013916015625,-0.06510325521230698,-0.13494762778282166,-0.08096318691968918
1769658634797002000,7.441001953125,-0.06630820035934448,-0.13433662056922913,-0.08467724919319153
1769658634806989000,7.450989013671875,-0.06535238772630692,-0.12336837500333786,-0.08935616165399551
1769658634816977200,7.46097705078125,-0.05765168368816376,-0.127027228474617,-0.08400166779756546
1769658634826965000,7.470965087890625,-0.0564415417611599,-0.12708422541618347,-0.07342945039272308
1769658634836952800,7.480952880859375,-0.058004554361104965,-0.12179556488990784,-0.06535543501377106
1769658634846941000,7.49094091796875,-0.062219273298978806,-0.1156519204378128,-0.05127396807074547
1769658634856929000,7.500928955078125,-0.05317823961377144,-0.10387762635946274,-0.0444103367626667
1769658634866915800,7.510915771484375,-0.04676614701747894,-0.13304641842842102,-0.026752779260277748
1769658634876904000,7.520904052734375,-0.05742247402667999,-0.17290320992469788,-0.01484634168446064
1769658634886892000,7.53089208984375,-0.07421690225601196,-0.188302144408226,-0.02157987840473652
1769658634896879900,7.5408798828125,-0.09036710858345032,-0.19168224930763245,-0.02325776405632496
1769658634906868000,7.550867919921875,-0.09643911570310593,-0.1858145147562027,-0.01695006713271141
1769658634916856000,7.56085595703125,-0.09686215221881866,-0.15837956964969635,-0.01199783943593502
1769658634926843000,7.5708427734375,-0.09931892156600952,-0.17585204541683197,-0.003985985182225704
1769658634936831000,7.5808310546875,-0.09199363738298416,-0.18137186765670776,-0.005965483374893665
1769658634946819000,7.590819091796875,-0.08698049932718277,-0.1537301242351532,-0.008709071204066277
1769658634956807000,7.600806884765625,-0.08521899580955505,-0.13718807697296143,-0.002767255064100027
1769658634966795000,7.610794921875,-0.0827568992972374,-0.12899884581565857,-0.0039853849448263645
1769658634976782800,7.620782958984375,-0.09370444715023041,-0.127228781580925,-0.010112384334206581
1769658634986770000,7.63077001953125,-0.0873141959309578,-0.130010187625885,-0.02177623100578785
1769658634996758000,7.640758056640625,-0.08905203640460968,-0.14079341292381287,-0.029848255217075348
1769658635006745900,7.650745849609375,-0.09054926782846451,-0.1589692234992981,-0.04314408823847771
1769658635016734000,7.66073388671875,-0.08863081783056259,-0.17076227068901062,-0.0511014461517334
1769658635026722000,7.67072216796875,-0.08750803023576736,-0.16353604197502136,-0.05199520289897919
1769658635036710000,7.6807099609375,-0.08055513352155685,-0.13901183009147644,-0.049276482313871384
1769658635046697000,7.690697021484375,-0.07389004528522491,-0.14419646561145782,-0.05225230008363724
1769658635056685000,7.70068505859375,-0.07782641053199768,-0.1567142903804779,-0.0516967847943306
1769658635066673000,7.7106728515625,-0.08041207492351532,-0.14063599705696106,-0.056748002767562866
1769658635076661000,7.720660888671875,-0.08470180630683899,-0.13086572289466858,-0.06075785309076309
1769658635086648800,7.73064892578125,-0.09043452888727188,-0.13278426229953766,-0.06414566189050674
1769658635096636700,7.74063671875,-0.0905168205499649,-0.14535833895206451,-0.06169040501117706
1769658635106624000,7.7506240234375,-0.09248755872249603,-0.1470497101545334,-0.059473589062690735
1769658635116611800,7.76061181640625,-0.08934711664915085,-0.14405381679534912,-0.058519020676612854
1769658635126599700,7.770599609375,-0.08684294670820236,-0.150431826710701,-0.056648679077625275
1769658635136587800,7.780587890625,-0.08143903315067291,-0.15470750629901886,-0.06008698791265488
1769658635146576000,7.790575927734375,-0.07848532497882843,-0.14251208305358887,-0.060793519020080566
1769658635156563700,7.800563720703125,-0.07699701935052872,-0.13504566252231598,-0.05913016200065613
1769658635166550800,7.81055078125,-0.07699888199567795,-0.13805529475212097,-0.05919301137328148
1769658635176539000,7.820538818359375,-0.07496112585067749,-0.1347881257534027,-0.05629097297787666
1769658635186526700,7.830526611328125,-0.06704487651586533,-0.11763257533311844,-0.04690093547105789
1769658635196514800,7.840514892578125,-0.06597565859556198,-0.11045324802398682,-0.039675019681453705
1769658635206503000,7.8505029296875,-0.06416603922843933,-0.11566239595413208,-0.04496006295084953
1769658635216491000,7.860490966796875,-0.06595275551080704,-0.10801396518945694,-0.052530597895383835
1769658635226477800,7.870477783203125,-0.06499268859624863,-0.10055764019489288,-0.04846368730068207
1769658635236466000,7.8804658203125,-0.06992419064044952,-0.10437493771314621,-0.03936953842639923
1769658635246453800,7.890453857421875,-0.06648338586091995,-0.11209703981876373,-0.032291390001773834
1769658635256441900,7.90044189453125,-0.06709463149309158,-0.11345147341489792,-0.027418721467256546
1769658635266430000,7.910429931640625,-0.06480138003826141,-0.10792993754148483,-0.024761950597167015
1769658635276418000,7.92041796875,-0.06174336373806,-0.09244118630886078,-0.021375544369220734
1769658635286404900,7.93040478515625,-0.05434057116508484,-0.07249438017606735,-0.014081146568059921
1769658635296393000,7.94039306640625,-0.042843084782361984,-0.05657869949936867,-0.007200567051768303
1769658635306381000,7.950381103515625,-0.034604862332344055,-0.03768942877650261,0.0009186118841171265
1769658635316369000,7.960368896484375,-0.02862260676920414,-0.029726270586252213,0.006977662444114685
1769658635326357000,7.97035693359375,-0.02687796950340271,-0.025887858122587204,0.011711430735886097
1769658635336344800,7.9803447265625,-0.03164862096309662,-0.01582186669111252,0.012324381619691849
1769658635346332000,7.990331787109375,-0.03504575043916702,-0.01071205921471119,0.012428510934114456
1769658635356320000,8.000320068359375,-0.0360637865960598,-0.007653284817934036,0.00946853868663311
1769658635366308000,8.01030810546875,-0.030308164656162262,0.0003942549228668213,0.011778831481933594
1769658635376295700,8.020295654296875,-0.03130454197525978,-0.0004048272967338562,0.019899478182196617
1769658635386283800,8.03028369140625,-0.04081069305539131,-0.012805836275219917,0.021879270672798157
1769658635396271900,8.04027197265625,-0.04070541262626648,-0.00895493570715189,0.026458740234375
1769658635406259000,8.050259033203124,-0.04781791567802429,-0.017316995188593864,0.03360746055841446
1769658635416246800,8.060246826171875,-0.05100678279995918,-0.021121956408023834,0.037834931164979935
1769658635426235000,8.07023486328125,-0.05357886478304863,-0.019498493522405624,0.042049117386341095
1769658635436222700,8.08022265625,-0.0586358979344368,-0.008514992892742157,0.0418299175798893
1769658635446210800,8.0902109375,-0.0554659366607666,-0.0010019494220614433,0.03666391596198082
1769658635456199000,8.100198974609375,-0.047313202172517776,-0.0023931257892400026,0.03530298173427582
1769658635466185700,8.110185791015626,-0.04401247948408127,-0.0014738026075065136,0.023320356383919716
1769658635476173800,8.120173828125,-0.04843376949429512,-0.00019332068040966988,0.023150812834501266
1769658635486162000,8.130161865234374,-0.05260800942778587,-0.002304940950125456,0.029517099261283875
1769658635496149800,8.140149658203125,-0.048439230769872665,0.0030570225790143013,0.029967021197080612
1769658635506137900,8.150137939453124,-0.050132203847169876,0.0016926851822063327,0.031992357224226
1769658635516126000,8.1601259765625,-0.04479314014315605,0.0018448689952492714,0.031032633036375046
1769658635526112800,8.17011279296875,-0.046012602746486664,0.005191929638385773,0.03220868483185768
1769658635536100900,8.180100830078125,-0.03576338291168213,0.01185922883450985,0.03351655229926109
1769658635546089000,8.1900888671875,-0.023181810975074768,0.01829582266509533,0.036719538271427155
1769658635556076800,8.200076904296875,-0.01999192126095295,0.029473958536982536,0.03622859716415405
1769658635566065000,8.21006494140625,-0.0202446561306715,0.04941517859697342,0.028615152463316917
1769658635576052000,8.220052001953125,-0.009664537385106087,0.06411855667829514,0.020721476525068283
1769658635586039800,8.230039794921876,-0.012890957295894623,0.06001649051904678,0.039383843541145325
1769658635596028000,8.24002783203125,-0.012515229173004627,0.047793127596378326,0.05526991933584213
1769658635606016000,8.25001611328125,-0.003852232825011015,0.03426213935017586,0.06560990959405899
1769658635616003800,8.26000390625,-0.0023152786307036877,0.026673713698983192,0.06664982438087463
1769658635625992000,8.269991943359376,-0.005787773989140987,0.03271722421050072,0.06600826233625412
1769658635635979800,8.279979736328125,-0.0050221155397593975,0.04147263243794441,0.06732839345932007
1769658635645966800,8.289966796875,0.0029133055359125137,0.05487925186753273,0.0680391937494278
1769658635655955000,8.299954833984375,0.01048955600708723,0.07725150138139725,0.06654146313667297
1769658635665942800,8.30994287109375,0.015404951758682728,0.09238438308238983,0.0632905438542366
1769658635675931000,8.319930908203125,0.017243152484297752,0.09807083755731583,0.060594815760850906
1769658635685918700,8.329918701171875,0.012749334797263145,0.09793554246425629,0.0557318851351738
1769658635695906000,8.339906005859374,0.0063405693508684635,0.09194373339414597,0.052304707467556
1769658635705893600,8.3498935546875,0.00531285535544157,0.08168869465589523,0.05340166389942169
1769658635715881700,8.3598818359375,0.011275587603449821,0.08931367099285126,0.05988597497344017
1769658635725869800,8.369869873046875,0.01896173693239689,0.10720265656709671,0.06630472838878632
1769658635735858000,8.37985791015625,0.021112460643053055,0.11876169592142105,0.06708084791898727
1769658635745845800,8.389845703125,0.021767333149909973,0.12474821507930756,0.06460916996002197
1769658635755832800,8.399832763671874,0.01915823295712471,0.12107747793197632,0.06036193296313286
1769658635765821000,8.409821044921875,0.015373350121080875,0.11236415058374405,0.05518794432282448
1769658635775808800,8.419808837890624,0.013765200041234493,0.10456196963787079,0.05167841166257858
1769658635785796900,8.429796875,0.009428508579730988,0.10185965895652771,0.043809302151203156
1769658635795785000,8.439784912109374,0.00413645152002573,0.0947118028998375,0.03337337449193001
1769658635805772800,8.449772705078125,-0.0003709483426064253,0.08928561210632324,0.021192342042922974
1769658635815761000,8.459760986328124,-0.0022001848556101322,0.08291696012020111,0.024234304204583168
1769658635825748000,8.469748046875,0.002022789791226387,0.0862501785159111,0.031032023951411247
1769658635835735800,8.47973583984375,0.008059464395046234,0.09104073792695999,0.0362275093793869
1769658635845724000,8.489723876953125,0.016862008720636368,0.08807557821273804,0.03884512931108475
1769658635855712000,8.4997119140625,0.015219418331980705,0.08932390809059143,0.03958052024245262
1769658635865699800,8.509699951171875,0.009513861499726772,0.08966479450464249,0.03644997626543045
1769658635875687000,8.51968701171875,0.005958808586001396,0.08184182643890381,0.036597445607185364
1769658635885675000,8.529675048828125,0.014346168376505375,0.07361745834350586,0.03306875750422478
1769658635895662800,8.539662841796876,0.02389213629066944,0.08098004758358002,0.02876753732562065
1769658635905651000,8.54965087890625,0.02971194125711918,0.10025760531425476,0.032269593328237534
1769658635915639000,8.55963916015625,0.03472059220075607,0.11770385503768921,0.03773990646004677
1769658635925627000,8.569626953125,0.032694727182388306,0.12488293647766113,0.03985738754272461
1769658635935614700,8.57961474609375,0.028500601649284363,0.11205346137285233,0.044603243470191956
1769658635945602000,8.58960205078125,0.025014525279402733,0.0924920067191124,0.05053543299436569
1769658635955590000,8.59958984375,0.01960924081504345,0.07123873382806778,0.06173933297395706
1769658635965577700,8.60957763671875,0.017243821173906326,0.0541878417134285,0.07056425511837006
1769658635975565800,8.61956591796875,0.014450873248279095,0.055141158401966095,0.07662343978881836
1769658635985554000,8.629553955078125,0.017415504902601242,0.06308510154485703,0.07434403896331787
1769658635995540700,8.639540771484375,0.021244730800390244,0.06441570073366165,0.06617637723684311
1769658636005528800,8.64952880859375,0.028421949595212936,0.06651213765144348,0.05636502429842949
1769658636015516700,8.6595166015625,0.03680908679962158,0.07617060840129852,0.04793953150510788
1769658636025504800,8.6695048828125,0.04166962206363678,0.09304945915937424,0.0431186780333519
1769658636035492900,8.679492919921875,0.04719363898038864,0.10882659256458282,0.046473294496536255
1769658636045481000,8.68948095703125,0.05262036249041557,0.1198454201221466,0.05313678830862045
1769658636055468800,8.69946875,0.04635864868760109,0.12609343230724335,0.0636838749051094
1769658636065455900,8.709455810546874,0.030993277207016945,0.12559835612773895,0.07180944085121155
1769658636075444000,8.71944384765625,0.012811118736863136,0.11087888479232788,0.07770752161741257
1769658636085431800,8.729431884765624,-0.0008937742095440626,0.08146373182535172,0.07768329232931137
1769658636095420000,8.739419921875,-0.00432054977864027,0.05095411837100983,0.07853128015995026
1769658636105408000,8.749407958984374,0.000876076752319932,0.04656442999839783,0.07736801356077194
1769658636115394800,8.759394775390625,0.015559857711195946,0.06307496875524521,0.07590140402317047
1769658636125383000,8.7693828125,0.03363339975476265,0.08216104656457901,0.06991515308618546
1769658636135371000,8.77937109375,0.04988689720630646,0.1208394467830658,0.05907391011714935
1769658636145358800,8.78935888671875,0.060705989599227905,0.14849025011062622,0.051917463541030884
1769658636155347000,8.799346923828125,0.06580327451229095,0.1663554608821869,0.04915423318743706
1769658636165335000,8.8093349609375,0.07301724702119827,0.17128844559192657,0.044865481555461884
1769658636175321900,8.81932177734375,0.07566456496715546,0.1744653284549713,0.04645437002182007
1769658636185310000,8.82931005859375,0.0707068219780922,0.1888975352048874,0.0407879576086998
1769658636195298000,8.839298095703125,0.07072559744119644,0.1906926929950714,0.04404449090361595
1769658636205286000,8.849285888671876,0.0705261304974556,0.18272797763347626,0.05946020036935806
1769658636215274000,8.85927392578125,0.0680747777223587,0.18042241036891937,0.06623667478561401
1769658636225261800,8.86926171875,0.0666997879743576,0.17033782601356506,0.07169029861688614
1769658636235249000,8.879248779296875,0.06814694404602051,0.1677493005990982,0.08157669007778168
1769658636245237000,8.889237060546876,0.07053101062774658,0.17721310257911682,0.08255726844072342
1769658636255224800,8.899224853515625,0.07388707995414734,0.1868167221546173,0.08033373206853867
1769658636265212700,8.909212646484375,0.0834246575832367,0.19816525280475616,0.08088341355323792
1769658636275200800,8.91920068359375,0.09616056084632874,0.20470339059829712,0.08680200576782227
1769658636285188900,8.92918896484375,0.10411861538887024,0.20626986026763916,0.08898978680372238
1769658636295177000,8.939177001953125,0.10201214998960495,0.20569029450416565,0.08839836716651917
1769658636305163800,8.949163818359375,0.09632603824138641,0.20521144568920135,0.08273649215698242
1769658636315152000,8.95915185546875,0.08430688083171844,0.2060895711183548,0.07919953763484955
1769658636325139700,8.9691396484375,0.08285093307495117,0.21527907252311707,0.06709946691989899
1769658636335127800,8.9791279296875,0.08457399159669876,0.22061604261398315,0.061536919325590134
1769658636345116000,8.989115966796875,0.0861591100692749,0.2056184560060501,0.06435773521661758
1769658636355102700,8.999102783203124,0.08588968217372894,0.19493593275547028,0.06178465858101845
1769658636365090800,9.0090908203125,0.0857357531785965,0.19329649209976196,0.058881279081106186
1769658636375079000,9.019078857421874,0.08052913844585419,0.19356462359428406,0.06333233416080475
1769658636385067000,9.02906689453125,0.07976987212896347,0.19495266675949097,0.06587591767311096
1769658636395054800,9.039054931640624,0.08037906885147095,0.18725736439228058,0.0668056458234787
1769658636405043000,9.04904296875,0.08467501401901245,0.1832442432641983,0.060040950775146484
1769658636415029800,9.05902978515625,0.08350197970867157,0.17470566928386688,0.049875497817993164
1769658636425017900,9.069017822265625,0.08373180776834488,0.17449261248111725,0.03955148905515671
1769658636435006000,9.079005859375,0.07237444818019867,0.171498104929924,0.03184334561228752
1769658636444994000,9.088994140625,0.05733424425125122,0.14521484076976776,0.027463775128126144
1769658636454982000,9.09898193359375,0.04366650432348251,0.10554292798042297,0.027958251535892487
1769658636464970000,9.108969970703125,0.03933247923851013,0.09071071445941925,0.0199261587113142
1769658636474956800,9.118956787109376,0.04550572857260704,0.12293341755867004,0.014664167538285255
1769658636484945000,9.12894482421875,0.057326436042785645,0.1611921340227127,0.02461720071732998
1769658636494933000,9.13893310546875,0.07163982093334198,0.1560399830341339,0.03221311792731285
1769658636504920800,9.1489208984375,0.07775470614433289,0.142432302236557,0.032774511724710464
1769658636514908700,9.15890869140625,0.07924167066812515,0.14354701340198517,0.032823529094457626
1769658636524896800,9.168896728515625,0.07392946630716324,0.13382701575756073,0.03363153338432312
1769658636534884900,9.178884765625,0.06891842186450958,0.13000060617923737,0.034518416970968246
1769658636544871700,9.18887158203125,0.06298570334911346,0.12633688747882843,0.03255273774266243
1769658636554859800,9.19885986328125,0.05388390272855759,0.13396777212619781,0.023449387401342392
1769658636564847900,9.208847900390625,0.05042605474591255,0.11770864576101303,0.017973395064473152
1769658636574835700,9.218835693359376,0.04434042051434517,0.10739754140377045,0.008306470699608326
1769658636584823800,9.22882373046875,0.039809051901102066,0.10497991740703583,0.008043883368372917
1769658636594811000,9.238810791015625,0.04083742946386337,0.09313007444143295,0.012727498076856136
1769658636604798700,9.248798828125,0.03987043723464012,0.08268915116786957,0.023235799744725227
1769658636614786800,9.258786865234375,0.041133880615234375,0.08468344062566757,0.03128422051668167
1769658636624775000,9.26877490234375,0.04139433801174164,0.08956234902143478,0.03315349295735359
1769658636634762800,9.2787626953125,0.0479312464594841,0.09248962253332138,0.032018259167671204
1769658636644750800,9.288750732421875,0.051868196576833725,0.09548728168010712,0.027620313689112663
1769658636654739000,9.298739013671875,0.04823755472898483,0.09723013639450073,0.025671927258372307
1769658636664725800,9.308725830078124,0.04095087945461273,0.07889240980148315,0.02941686473786831
1769658636674713900,9.3187138671875,0.04428773373365402,0.07581716775894165,0.02258501946926117
1769658636684702000,9.328701904296874,0.046778853982686996,0.08913803100585938,0.014361976645886898
1769658636694689800,9.338689697265625,0.04904564842581749,0.09524878114461899,0.011029434390366077
1769658636704678000,9.348677978515624,0.05043395236134529,0.0917762815952301,0.012522668577730656
1769658636714666000,9.358666015625,0.05035308003425598,0.08182994276285172,0.015208032913506031
1769658636724652800,9.36865283203125,0.04324323683977127,0.07121352106332779,0.016262112185359
1769658636734641000,9.378640869140625,0.03783644735813141,0.06554276496171951,0.01599741354584694
1769658636744629000,9.38862890625,0.03250639885663986,0.057792164385318756,0.012168586254119873
1769658636754617000,9.3986171875,0.03075425513088703,0.05086427181959152,0.005963835399597883
1769658636764605000,9.40860498046875,0.030622432008385658,0.0476602204144001,0.0001392359845340252
1769658636774592800,9.4185927734375,0.032081976532936096,0.04659077525138855,-0.003407311625778675
1769658636784579800,9.428579833984376,0.035502009093761444,0.04210175201296806,0.0012665358372032642
1769658636794568000,9.43856787109375,0.03644827753305435,0.03944024071097374,0.004064604174345732
1769658636804555800,9.4485556640625,0.03836148977279663,0.04485604539513588,0.00044856383465230465
1769658636814544000,9.4585439453125,0.03742494434118271,0.04632868245244026,-0.006272493861615658
1769658636824531700,9.46853173828125,0.033660031855106354,0.04443171247839928,-0.010359913110733032
1769658636834519800,9.478519775390625,0.03323974087834358,0.04076502099633217,-0.01317928358912468
1769658636844507000,9.4885068359375,0.03235051408410072,0.040129322558641434,-0.01107724942266941
1769658636854494700,9.49849462890625,0.030003422871232033,0.03051603026688099,-0.009015951305627823
1769658636864482800,9.50848291015625,0.02433488331735134,0.01849212311208248,-0.011665796861052513
1769658636874471000,9.518470947265625,0.019101861864328384,0.009980753064155579,-0.007387123070657253
1769658636884458800,9.528458740234376,0.017064543440937996,0.002516978420317173,-0.005279763601720333
1769658636894446800,9.53844677734375,0.019713280722498894,0.005397201981395483,-0.004715388640761375
1769658636904434000,9.548433837890625,0.01733401231467724,0.006119185127317905,-0.006662692874670029
1769658636914421800,9.558421875,0.016131239011883736,0.005179791711270809,-0.009981293231248856
1769658636924409900,9.568409912109376,0.006917501334100962,-0.0012437528930604458,-0.010440688580274582
1769658636934398000,9.57839794921875,0.007978549227118492,-0.009013844653964043,-0.007529733702540398
1769658636944385800,9.5883857421875,0.009498681873083115,-0.013661062344908714,-0.0014193770475685596
1769658636954374100,9.5983740234375,0.015356658026576042,-0.005642044357955456,-0.0023278864100575447
1769658636964361000,9.60836083984375,0.01913941279053688,0.004327765200287104,-0.00020667840726673603
1769658636974349000,9.61834912109375,0.022272488102316856,0.01459203939884901,-0.0008687255904078484
1769658636984337200,9.628337158203125,0.0210943054407835,0.015125737525522709,-0.009752764366567135
1769658636994325000,9.638324951171874,0.01867646723985672,0.011252278462052345,-0.01789449155330658
1769658637004313000,9.64831298828125,0.018061809241771698,0.01025306060910225,-0.018874268978834152
1769658637014301200,9.65830126953125,0.019419444724917412,0.011131956242024899,-0.01500268466770649
1769658637024288000,9.6682880859375,0.019435690715909004,0.013620148412883282,-0.00814797356724739
1769658637034276000,9.678276123046874,0.018287822604179382,0.016776006668806076,-0.004029341973364353
1769658637044264200,9.68826416015625,0.014726112596690655,0.010286683216691017,-0.0060586705803871155
1769658637054252000,9.698251953125,0.008448861539363861,0.005032507237046957,-0.012531324289739132
1769658637064239900,9.708239990234375,0.005573713220655918,0.0012122027110308409,-0.018767913803458214
1769658637074228000,9.71822802734375,0.004365482367575169,0.0016793671529740095,-0.020817596465349197
1769658637084215000,9.728215087890625,0.008241446688771248,0.006222986150532961,-0.016671055927872658
1769658637094203000,9.738202880859374,0.01236224640160799,0.012764139100909233,-0.008007287979125977
1769658637104191000,9.74819091796875,0.013737237080931664,0.008946496993303299,0.0010581114329397678
1769658637114178800,9.7581787109375,0.011381937190890312,-0.0008808330167084932,0.0029849084094166756
1769658637124167000,9.7681669921875,0.010920410975813866,-0.003456642385572195,-0.0008598971180617809
1769658637134155000,9.778155029296874,0.010380276478827,-0.006232938729226589,-0.005005224607884884
1769658637144141800,9.788141845703125,0.005653698928654194,-0.006941073574125767,-0.010744336061179638
1769658637154130000,9.7981298828125,0.0051854695193469524,-0.010720577090978622,-0.012269116938114166
1769658637164118000,9.808117919921875,0.005235803313553333,-0.012140042148530483,-0.00978784915059805
1769658637174105900,9.81810595703125,0.008956950157880783,-0.005626187659800053,-0.007811147253960371
1769658637184094000,9.828093994140625,0.012295490130782127,0.0002783065428957343,-0.009330745786428452
1769658637194082000,9.83808203125,0.0141059048473835,-0.0005598531570285559,-0.010398345068097115
1769658637204068900,9.84806884765625,0.014630815014243126,0.0012979680905118585,-0.0131379384547472
1769658637214057000,9.858056884765626,0.011143272742629051,0.0054838042706251144,-0.019156763330101967
1769658637224045000,9.868045166015625,0.005801238585263491,0.007093152962625027,-0.023460697382688522
1769658637234033200,9.878033203125,0.004366726614534855,0.0024364329874515533,-0.02493450790643692
1769658637244021000,9.88802099609375,0.0044884332455694675,-0.0018874751403927803,-0.022513961419463158
1769658637254009000,9.898009033203126,0.006483982317149639,0.0010014423169195652,-0.015789998695254326
1769658637263996000,9.907995849609375,0.007976152002811432,0.004270738922059536,-0.00492403469979763
1769658637273984000,9.91798388671875,0.009459134191274643,0.0009369732579216361,-0.0009663575328886509
1769658637283972000,9.92797216796875,0.0034478469751775265,-0.00029367348179221153,-0.0012443915475159883
1769658637293960200,9.937960205078125,-0.002345372224226594,-0.01004994660615921,-0.006659547798335552
1769658637303948000,9.947947998046875,-0.0034242188557982445,-0.0032671410590410233,-0.009516054764389992
1769658637313936000,9.957935791015625,0.00011219270527362823,0.008832931518554688,-0.015307364985346794
1769658637323923200,9.967923095703124,0.0032712346874177456,0.01781151257455349,-0.014614410698413849
1769658637333911000,9.9779111328125,0.006992913782596588,0.019685976207256317,-0.011317015625536442
1769658637343899100,9.987899169921874,0.00486771110445261,0.0103159099817276,-0.010025115683674812
1769658637353887000,9.997886962890625,0.005341753363609314,0.003806180553510785,-0.012193163856863976
1769658637363874800,10.007874755859374,0.003937734756618738,0.0017779170302674174,-0.01249330211430788
1769658637373863000,10.01786279296875,0.005242284387350082,0.005151261109858751,-0.010120942257344723
1769658637383850000,10.02785009765625,0.008248992264270782,0.010850425809621811,-0.007375488989055157
1769658637393837800,10.037837890625,0.011933785863220692,0.008516419678926468,-0.004521699622273445
1769658637403826000,10.047825927734374,0.010200068354606628,0.010395280085504055,-0.003238588571548462
1769658637413814000,10.05781396484375,0.008781669661402702,0.008793017826974392,-0.004808019381016493
1769658637423801900,10.0678017578125,0.005511041264981031,0.005262465216219425,-0.007810200564563274
1769658637433790000,10.0777900390625,0.002889202907681465,0.001568915555253625,-0.007166036404669285
1769658637443777000,10.087777099609376,0.002685204613953829,-0.00101088872179389,-0.0037433418910950422
1769658637453764900,10.097764892578125,0.005512462928891182,0.0006194101879373193,-0.004085535183548927
1769658637463753000,10.1077529296875,0.004426425788551569,0.011062197387218475,-0.007736196741461754
1769658637473741000,10.117740966796875,0.0034970268607139587,0.009148797020316124,-0.013490238226950169
1769658637483729000,10.12772900390625,0.004244576208293438,-0.0001160742249339819,-0.01821441948413849
1769658637493717000,10.137717041015625,0.0021541703026741743,0.0009691716404631734,-0.023853136226534843
1769658637503704000,10.1477041015625,0.005154221318662167,0.0019092675065621734,-0.025729866698384285
1769658637513692000,10.15769189453125,0.006834633182734251,-0.004480545409023762,-0.024274161085486412
1769658637523680000,10.167679931640626,0.008122271858155727,-0.00392500963062048,-0.023315688595175743
1769658637533668000,10.177668212890625,0.008629515767097473,0.004573171958327293,-0.022459648549556732
1769658637543656200,10.18765625,0.011009049601852894,0.007407840341329575,-0.023219449445605278
1769658637553644000,10.19764404296875,0.009451677091419697,0.0037223733961582184,-0.025905262678861618
1769658637563631000,10.207631103515626,0.004829228390008211,0.0027114374097436666,-0.02693803794682026
1769658637573619000,10.217618896484375,0.004976057913154364,0.003357886802405119,-0.021407417953014374
1769658637583607000,10.22760693359375,0.006154240574687719,0.004499317612498999,-0.01884652115404606
1769658637593595100,10.23759521484375,0.005733327940106392,0.004392609000205994,-0.021703843027353287
1769658637603583000,10.2475830078125,0.004944233223795891,0.005564399994909763,-0.023686833679676056
1769658637613570800,10.25757080078125,0.006529567763209343,0.005585387349128723,-0.025811651721596718
1769658637623558100,10.26755810546875,0.012329933233559132,0.009663752280175686,-0.030261263251304626
1769658637633546000,10.2775458984375,0.01356821320950985,0.016970034688711166,-0.02590969204902649
1769658637643533800,10.287533935546875,0.010978556238114834,0.016301581636071205,-0.02110348455607891
1769658637653522000,10.29752197265625,0.007504063192754984,0.013536770828068256,-0.018655521795153618
1769658637663510000,10.307510009765625,0.006138926837593317,0.019103309139609337,-0.016100751236081123
1769658637673497900,10.317497802734374,0.00790224876254797,0.020518336445093155,-0.014894895255565643
1769658637683485000,10.32748486328125,0.0063570826314389706,0.016606686636805534,-0.014902884140610695
1769658637693473000,10.33747314453125,0.005925874225795269,0.009101077914237976,-0.017362091690301895
1769658637703460900,10.3474609375,0.006610839627683163,0.006975342519581318,-0.014736213721334934
1769658637713449000,10.357448974609374,0.00875747762620449,0.011536329053342342,-0.012431105598807335
1769658637723437000,10.36743701171875,0.011475233361124992,0.01888319104909897,-0.011334681883454323
1769658637733425000,10.3774248046875,0.013557028025388718,0.024543901905417442,-0.008105096407234669
1769658637743412000,10.387411865234375,0.016922730952501297,0.0317019447684288,-0.010194612666964531
1769658637753400000,10.397400146484374,0.019226230680942535,0.0352633111178875,-0.015956079587340355
1769658637763388000,10.407387939453125,0.020772995427250862,0.031695738434791565,-0.018382485955953598
1769658637773376000,10.4173759765625,0.019984610378742218,0.026303071528673172,-0.011557435616850853
1769658637783364000,10.427364013671875,0.016364045441150665,0.02272910811007023,-0.007507034577429295
1769658637793352000,10.43735205078125,0.015100463293492794,0.02028265967965126,-0.003159887855872512
1769658637803339000,10.447339111328125,0.01164980512112379,0.017604850232601166,-0.003979875706136227
1769658637813327000,10.4573271484375,0.01104180607944727,0.017726823687553406,-0.008600992150604725
1769658637823315000,10.46731494140625,0.009946447797119617,0.017077811062335968,-0.009137619286775589
1769658637833303000,10.477302978515626,0.012738683260977268,0.018041474744677544,-0.006902559660375118
1769658637843291100,10.487291015625,0.015021013095974922,0.016833998262882233,-0.0036124903708696365
1769658637853279000,10.497279052734376,0.01480458490550518,0.016664326190948486,0.0014838961651548743
1769658637863267000,10.50726708984375,0.016441630199551582,0.01674342155456543,0.0023566139861941338
1769658637873254100,10.517254150390626,0.015749165788292885,0.01587168127298355,-0.002410156885161996
1769658637883242000,10.527241943359375,0.017264770343899727,0.014017853885889053,-0.006534594111144543
1769658637893230000,10.53722998046875,0.01674438640475273,0.013340284116566181,-0.00876732636243105
1769658637903218000,10.547218017578125,0.015908420085906982,0.012382877990603447,-0.007776630111038685
1769658637913206000,10.5572060546875,0.014483495615422726,0.013512509874999523,-0.010108479298651218
1769658637923193900,10.56719384765625,0.014499475248157978,0.01550828292965889,-0.01477886363863945
1769658637933181000,10.577180908203125,0.014636671170592308,0.012792008928954601,-0.01828712970018387
1769658637943168800,10.587168701171874,0.014012428000569344,0.007704040035605431,-0.01920352317392826
1769658637953157000,10.5971572265625,0.011153258383274078,-0.0009349884930998087,-0.012009261175990105
1769658637963145200,10.607145263671875,0.0127295833081007,-0.009644590318202972,-0.003962253220379353
1769658637973133300,10.61713330078125,0.011534491553902626,-0.006093854084610939,-0.0033496033865958452
1769658637983120100,10.6271201171875,0.00978399533778429,-0.0027731580194085836,-0.007137683220207691
1769658637993108200,10.637108154296875,0.010368512943387032,-0.002359849400818348,-0.012787100858986378
1769658638003096300,10.647096435546874,0.008260887116193771,0.003024529665708542,-0.014496318995952606
1769658638013084200,10.657084228515625,0.007219590712338686,0.006410843692719936,-0.01552906259894371
1769658638023072300,10.667072265625,0.004045635927468538,-0.005502274725586176,-0.014062725007534027
1769658638033060400,10.677060302734375,0.0022476487793028355,-0.02308470569550991,-0.013838382437825203
1769658638043048200,10.687048095703124,0.005843714810907841,-0.009433608502149582,-0.009493168443441391
1769658638053035300,10.69703515625,0.006076253950595856,-0.010439001023769379,0.005269917659461498
1769658638063023400,10.7070234375,0.00980441365391016,-0.012818003073334694,0.012359784916043282
1769658638073011200,10.71701123046875,0.012344934046268463,-0.002450362080708146,0.010715127922594547
1769658638082999300,10.726999267578124,0.01260166335850954,-0.009607074782252312,0.006723049096763134
1769658638092987400,10.7369873046875,0.010904742404818535,-0.0171413142234087,0.0020074783824384212
1769658638102975200,10.746975341796874,0.01009167917072773,-0.02371186390519142,0.00244397041387856
1769658638112962300,10.75696240234375,0.009278438054025173,-0.02826104313135147,0.005657174624502659
1769658638122950400,10.766950439453124,0.01361912488937378,-0.01695139706134796,0.007040686439722776
1769658638132938200,10.776938232421875,0.01838582754135132,-0.005350966472178698,0.0027305264957249165
1769658638142926300,10.78692626953125,0.018980246037244797,-0.003662256058305502,-0.0023992545902729034
1769658638152914200,10.7969140625,0.0181067306548357,-0.007993720471858978,-0.004242993891239166
1769658638162902300,10.80690234375,0.020127803087234497,-0.00698171928524971,-0.006869936361908913
1769658638172889300,10.816889404296875,0.024787401780486107,0.0031573837623000145,-0.007948232814669609
1769658638182877200,10.826877197265626,0.02480897307395935,0.012713870964944363,-0.011945637874305248
1769658638192865000,10.836864990234375,0.02113775908946991,0.01432331744581461,-0.015020286664366722
1769658638202853000,10.84685302734375,0.018989652395248413,0.01514223963022232,-0.019169757142663002
1769658638212841200,10.85684130859375,0.016019830480217934,0.015100032091140747,-0.02360638976097107
1769658638222829300,10.866829345703126,0.015188392251729965,0.017986098304390907,-0.0218708086758852
1769658638232816000,10.876816162109375,0.015856890007853508,0.022002726793289185,-0.01752171665430069
1769658638242804200,10.88680419921875,0.015940513461828232,0.023228846490383148,-0.012098453938961029
1769658638252792300,10.896792236328125,0.014002087526023388,0.017454514279961586,-0.009610728360712528
1769658638262780200,10.9067802734375,0.010525064542889595,0.008580328896641731,-0.011120207607746124
1769658638272768300,10.916768310546875,0.006592950318008661,0.0026905694976449013,-0.009737515822052956
1769658638282756400,10.92675634765625,0.005205443128943443,0.0019880274776369333,-0.008757205680012703
1769658638292743200,10.9367431640625,0.005581837147474289,0.006080704741179943,-0.008333694189786911
1769658638302731300,10.946731201171875,0.004517904482781887,0.007871946319937706,-0.005763477645814419
1769658638312719400,10.95671923828125,0.002718893811106682,0.007162434048950672,-0.00165277486667037
1769658638322707200,10.966707275390625,0.003247265238314867,0.009211735799908638,-0.001179531216621399
1769658638332695300,10.9766953125,0.006170307751744986,0.011010512709617615,-0.0011395954061299562
1769658638342683400,10.986683349609375,0.009562375955283642,0.012413732707500458,-0.005935415625572205
1769658638352670200,10.996670166015624,0.01517738401889801,0.01505189761519432,-0.0066016437485814095
1769658638362658300,11.006658203125,0.01650337129831314,0.013896885327994823,-0.0018284597899764776
1769658638372646400,11.016646484375,0.015279517509043217,0.0110170878469944,0.0035763464402407408
1769658638382634200,11.02663427734375,0.007805355824530125,0.001507472014054656,0.007929815910756588
1769658638392622300,11.036622314453124,0.0008090508636087179,-0.01892624795436859,0.012122385203838348
1769658638402610200,11.046610107421875,0.0017118626274168491,-0.022245611995458603,0.011066974140703678
1769658638412597200,11.05659716796875,0.007759992498904467,-0.010288933292031288,0.006316672544926405
1769658638422585300,11.06658544921875,0.009537652134895325,-0.008596761152148247,0.004429556429386139
1769658638432573400,11.076573486328124,0.008389918133616447,-0.02138555236160755,0.004451288841664791
1769658638442561000,11.08656103515625,0.01036012452095747,-0.011441309936344624,0.005537325982004404
1769658638452549000,11.096549072265624,0.013496707193553448,-0.003019629744812846,0.0031592906452715397
1769658638462537200,11.106537109375,0.019413985311985016,0.0006411512149497867,-0.0003369071055203676
1769658638472524300,11.116524169921876,0.024121301248669624,0.009289096109569073,-0.0030156441498547792
1769658638482512100,11.12651220703125,0.0296191293746233,0.0037563792429864407,-0.005938730202615261
1769658638492500200,11.136500244140626,0.032598141580820084,-0.0011803223751485348,-0.013867226429283619
1769658638502488000,11.146488037109375,0.03335128352046013,-0.00577161181718111,-0.004897699691355228
1769658638512476200,11.15647607421875,0.04150610417127609,-0.014547143131494522,0.02192733809351921
1769658638522464300,11.16646435546875,0.0651152953505516,-0.017701124772429466,0.05170920118689537
1769658638532452400,11.176452392578126,0.10377862304449081,-0.009925194084644318,0.09506796300411224
1769658638542439200,11.186439208984375,0.14188392460346222,-0.009474587626755238,0.13876217603683472
1769658638552427300,11.19642724609375,0.17368179559707642,-0.00655565969645977,0.1776382476091385
1769658638562415400,11.206415283203125,0.20122554898262024,-0.034268248826265335,0.2097564935684204
1769658638572403200,11.2164033203125,0.21164578199386597,-0.08323027193546295,0.22794994711875916
1769658638582391300,11.226391357421875,0.22001902759075165,-0.09753730148077011,0.23190180957317352
1769658638592379400,11.23637939453125,0.23293061554431915,-0.03951539099216461,0.231084942817688
1769658638602366200,11.2463662109375,0.23946334421634674,0.007148250006139278,0.23444397747516632
1769658638612354300,11.256354248046875,0.2591477930545807,0.007708428427577019,0.23171885311603546
1769658638622342400,11.26634228515625,0.2691487669944763,0.0010209647007286549,0.23192019760608673
1769658638632330200,11.276330322265625,0.2875254452228546,-0.03989201784133911,0.2430734783411026
1769658638642318300,11.286318359375,0.3161006271839142,-0.07265343517065048,0.24338559806346893
1769658638652305200,11.29630517578125,0.33240798115730286,-0.10874214768409729,0.2616023123264313
1769658638662293200,11.306293212890624,0.35562142729759216,-0.14801284670829773,0.2802300751209259
1769658638672281300,11.31628125,0.371545672416687,-0.17889894545078278,0.294833779335022
1769658638682269400,11.32626953125,0.3738437294960022,-0.1658547818660736,0.3067146837711334
1769658638692257300,11.33625732421875,0.3680572211742401,-0.11357282847166061,0.3113023340702057
1769658638702245000,11.3462451171875,0.34857168793678284,-0.06100362539291382,0.3121742606163025
1769658638712233200,11.356233154296875,0.33630573749542236,-0.020582610741257668,0.2955731451511383
1769658638722220300,11.36622021484375,0.33318373560905457,0.026194216683506966,0.26105165481567383
1769658638732208000,11.3762080078125,0.328450083732605,0.06534320116043091,0.21845674514770508
1769658638742196200,11.3861962890625,0.31645891070365906,0.10077948868274689,0.18218767642974854
1769658638752184000,11.39618408203125,0.2957095801830292,0.13609397411346436,0.15298746526241302
1769658638762172200,11.406172119140624,0.2691413462162018,0.16320602595806122,0.1289556324481964
1769658638772160300,11.41616015625,0.2389529049396515,0.20994853973388672,0.10925500094890594
1769658638782147000,11.42614697265625,0.2191016972064972,0.24669642746448517,0.10446743667125702
1769658638792135200,11.43613525390625,0.20822149515151978,0.25027745962142944,0.11072365939617157
1769658638802123300,11.446123291015626,0.20617912709712982,0.24654024839401245,0.11840607970952988
1769658638812111000,11.456111083984375,0.21040861308574677,0.2577481269836426,0.13166004419326782
1769658638822099200,11.46609912109375,0.19416813552379608,0.261487752199173,0.14798443019390106
1769658638832087300,11.47608740234375,0.20398031175136566,0.25710901618003845,0.17328450083732605
1769658638842074000,11.48607421875,0.199487566947937,0.26233628392219543,0.15130916237831116
1769658638852062200,11.496062255859375,0.176166370511055,0.24743454158306122,0.10048806667327881
1769658638862050300,11.50605029296875,0.1654554009437561,0.21993979811668396,0.04758809506893158
1769658638872038100,11.5160380859375,0.15269969403743744,0.17027448117733002,0.017122548073530197
1769658638882026200,11.526026123046876,0.1490945816040039,0.12122385203838348,0.03536733239889145
1769658638892014300,11.536014404296875,0.1492524892091751,0.09371104091405869,0.07922755926847458
1769658638902001200,11.546001220703126,0.151315376162529,0.07451071590185165,0.11330457031726837
1769658638911989200,11.5559892578125,0.15397751331329346,0.05759996175765991,0.12745942175388336
1769658638921977300,11.565977294921876,0.14688685536384583,0.04448655620217323,0.12828713655471802
1769658638931965400,11.57596533203125,0.12034707516431808,0.0040288325399160385,0.1269434094429016
1769658638941953300,11.585953369140626,0.10224957019090652,-0.06173234060406685,0.13411584496498108
1769658638951941400,11.59594140625,0.08517981320619583,-0.10946443676948547,0.14161962270736694
1769658638961928400,11.605928466796875,0.06882347911596298,-0.13570110499858856,0.14381752908229828
1769658638971916500,11.61591650390625,0.05533492565155029,-0.14045949280261993,0.13374797999858856
1769658638981904400,11.625904296875,0.04332886263728142,-0.12496896088123322,0.1140938475728035
1769658638991892200,11.635892333984375,0.03774185851216316,-0.09121490269899368,0.08461903035640717
1769658639001880300,11.64588037109375,0.033060021698474884,-0.05254127085208893,0.049153175204992294
1769658639011868400,11.655868408203125,0.03118954785168171,-0.02334122732281685,0.005584646016359329
1769658639021855200,11.665855224609375,0.022930821403861046,-0.020835725590586662,-0.023938890546560287
1769658639031843300,11.67584326171875,0.011911592446267605,-0.02475890889763832,-0.03349163755774498
1769658639041831200,11.6858310546875,0.0011601451551541686,-0.03053663671016693,-0.03270120918750763
1769658639051819300,11.6958193359375,-0.011832484975457191,-0.04784028232097626,-0.02788039855659008
1769658639061807400,11.705807373046875,-0.027061769738793373,-0.05483587831258774,-0.033145464956760406
1769658639071795500,11.71579541015625,-0.04907616972923279,-0.0605008527636528,-0.04602447897195816
1769658639081782300,11.7257822265625,-0.0663267970085144,-0.06736408919095993,-0.06619712710380554
1769658639091770400,11.735770263671874,-0.0763574168086052,-0.07590776681900024,-0.0824916809797287
1769658639101758500,11.745758544921875,-0.08155298233032227,-0.06811615824699402,-0.0938548594713211
1769658639111746300,11.755746337890624,-0.0794459730386734,-0.060024868696928024,-0.09162479639053345
1769658639121734400,11.765734375,-0.07945476472377777,-0.05981847271323204,-0.0886061042547226
1769658639131722500,11.775722412109374,-0.07879430055618286,-0.051877833902835846,-0.09210553020238876
1769658639141710300,11.78571044921875,-0.08412142097949982,-0.046575743705034256,-0.10858596861362457
1769658639151697400,11.795697509765626,-0.09422621130943298,-0.040771979838609695,-0.12822306156158447
1769658639161685500,11.805685546875,-0.10469190031290054,-0.0379016250371933,-0.14324940741062164
1769658639171673300,11.81567333984375,-0.11398947983980179,-0.044751279056072235,-0.14773809909820557
1769658639181661400,11.825661376953125,-0.11933018267154694,-0.055905669927597046,-0.13854485750198364
1769658639191649500,11.8356494140625,-0.11933617293834686,-0.06811633706092834,-0.13450856506824493
1769658639201637400,11.845637451171875,-0.12225499749183655,-0.08397599309682846,-0.13657543063163757
1769658639211624400,11.85562451171875,-0.12245522439479828,-0.0948326513171196,-0.137034609913826
1769658639221612500,11.865612548828125,-0.12086904793977737,-0.09085149317979813,-0.1381579339504242
1769658639231600400,11.875600341796876,-0.11701314151287079,-0.06228054687380791,-0.1516677886247635
1769658639241588500,11.88558837890625,-0.11580300331115723,-0.024059921503067017,-0.17422182857990265
1769658639251576300,11.895576416015626,-0.1208437830209732,-0.0010512876324355602,-0.19323711097240448
1769658639261564200,11.905564208984375,-0.12370854616165161,-0.008789367973804474,-0.19576844573020935
1769658639271551500,11.915551513671875,-0.12664198875427246,-0.027187027037143707,-0.17865848541259766
1769658639281539300,11.925539306640625,-0.12414553761482239,-0.02721499092876911,-0.1517893224954605
1769658639291527200,11.935527099609375,-0.12053681164979935,-0.015194570645689964,-0.12888780236244202
1769658639301515300,11.945515380859375,-0.12015385180711746,-0.012992404401302338,-0.11310669779777527
1769658639311503400,11.95550341796875,-0.12157775461673737,-0.025177396833896637,-0.11539638042449951
1769658639321491500,11.965491455078125,-0.12920425832271576,-0.03634243458509445,-0.13202063739299774
1769658639331478300,11.975478271484375,-0.14049330353736877,-0.037479300051927567,-0.15106400847434998
1769658639341466400,11.98546630859375,-0.15329964458942413,-0.032834216952323914,-0.1635289341211319
1769658639351454200,11.9954541015625,-0.15915481746196747,-0.02332279272377491,-0.17974212765693665
1769658639361442300,12.0054423828125,-0.15909916162490845,-0.0006632863078266382,-0.19207441806793213
1769658639371430400,12.015430419921875,-0.1556265950202942,0.0058111585676670074,-0.1945815533399582
1769658639381418500,12.02541845703125,-0.145049050450325,0.0017402505036443472,-0.18543332815170288
1769658639391405300,12.0354052734375,-0.12890304625034332,0.006851908750832081,-0.17495931684970856
1769658639401393400,12.045393310546874,-0.1057942658662796,0.020137352868914604,-0.15169313549995422
